Timestamp,X,Y,Z,Heading,Gyro_X,Gyro_Y,Gyro_Z
1749451226.7241106,0.0,0.0,-220.24759615384613,0.0,0.6458460092544556,0.8168227672576904,-9.868231773376465
1749451226.7343345,-0.5101439816660522,0.0,-218.68846153846152,0.0,1.361039161682129,-0.1745637208223343,-9.41109848022461
1749451226.7445984,-0.7675821915442244,0.0,-220.24759615384613,0.0,0.9903901815414429,0.17516157031059265,-10.301651000976562
1749451226.7569509,-1.2426390183382008,0.0,-217.12932692307692,0.0,1.3367278575897217,-0.3331855833530426,-9.653215408325195
1749451226.7666152,-1.836873230848832,0.0,-214.0110576923077,0.0,0.8028736114501953,0.5246875882148743,-9.616548538208008
1749451226.7764354,-2.2675759623573333,0.0,-214.0110576923077,0.0,1.1721277236938477,0.3168451488018036,-9.771982192993164
1749451226.7849255,-2.5955552229661336,0.20999502687525304,-220.24759615384613,0.0,0.8218046426773071,-0.1518465280532837,-9.533052444458008
1749451226.7945325,-3.2605117979209615,0.37582746580438486,-221.80673076923077,0.0,1.481201171875,0.26343977451324463,-9.953519821166992
1749451226.8048294,-3.990772449793175,0.5104496322212311,-221.80673076923077,0.0,1.0870379209518433,0.12115839123725891,-9.59164047241211
1749451226.8148465,-4.686828806092678,0.6220986020805066,-221.80673076923077,0.0,1.0473824739456177,0.20824098587036133,-9.72296142578125
1749451226.8250008,-5.273899897941202,0.21890525821743623,-220.24760408401488,0.0,1.1254976987838745,0.20704534649848938,-9.803268432617188
1749451226.8346407,-5.775717198300981,-0.12573681009377763,-217.12932692307692,0.0,1.0989943742752075,0.08249931037425995,-9.52946662902832
1749451226.8443208,-5.802372726884595,-0.42350254706954765,-217.90889423076922,0.0,1.4491181373596191,0.3963553309440613,-9.847108840942383
1749451226.854423,-5.825602176195949,-0.682995960304229,-219.46802884615386,0.0,1.1852798461914062,0.10362230986356735,-9.470083236694336
1749451226.8643074,-5.845987519612358,-0.9107182051229805,-220.24759615384613,0.0,1.2610037326812744,0.17675575613975525,-9.566133499145508
1749451226.876278,-6.248082576625258,-1.1116918785864733,-217.90889423076922,0.0,1.3213837146759033,0.18552377820014954,-9.545806884765625
1749451226.8844187,-6.604580464076772,-1.2898753423558553,-216.3497596153846,0.0,1.4226148128509521,0.2981134057044983,-9.532654762268066
1749451226.8947682,-7.147026632190491,-1.448444602365161,-217.12932692307692,0.0,1.3231770992279053,0.3622795343399048,-9.51651382446289
1749451226.9050496,-7.631233822616872,-1.5899892945215994,-217.12932692307692,0.0,1.3729956150054932,0.40671759843826294,-9.406713485717773
1749451226.914597,-8.06453020370542,-1.7166516078583156,-215.5701923076923,0.0,1.553736925125122,0.3347797393798828,-9.48223876953125
1749451226.9267433,-8.600027879179734,-1.830226494547906,-223.36586538461538,0.0,1.4833931922912598,0.2048533409833908,-9.624520301818848
1749451226.9344087,-9.080991470276702,-1.9322351266344464,-224.925,0.0,1.0517663955688477,0.16719061136245728,-9.168182373046875
1749451226.9445784,-9.513560077764469,-2.0239795595815764,-220.24759615384613,0.0,0.8801918029785156,0.11099543422460556,-9.237730026245117
1749451226.9544344,-9.90303425291908,-2.106583999036008,-218.68846153846152,0.0,1.0162956714630127,0.45633670687675476,-9.387384414672852
1749451226.9647174,-10.688705095802982,-2.181026389017805,-217.12932692307692,0.0,1.4453320503234863,0.20365768671035767,-9.514322280883789
1749451226.9768014,-11.397269332712824,-2.5247554633038476,-224.925,0.0,1.4877772331237793,0.08190149068832397,-9.442583084106445
1749451226.9849591,-12.03668164324915,-2.8349384927864882,-229.60240384615383,0.0,0.772384762763977,0.06297048926353455,-9.370445251464844
1749451226.9949136,-12.613977050274102,-3.1149882123597883,-224.925,0.0,0.41986966133117676,0.2682223618030548,-9.236135482788086
1749451227.0043745,-12.847464795436393,-3.23023127150432,-228.04326923076923,0.0,0.6841065883636475,0.36108389496803284,-9.351715087890625
1749451227.0152795,-13.058425546362653,-3.3343556326320165,-228.04326923076923,0.0,1.0025458335876465,0.217009037733078,-9.617944717407227
1749451227.025196,-13.249084537495097,-3.4284596095933804,-218.68846153846152,0.0,0.7064251899719238,-0.12474530935287476,-9.618940353393555
1749451227.034456,-13.421433849882556,-3.513526438206513,-220.24759615384613,0.0,0.49220597743988037,0.04623148590326309,-9.763214111328125
1749451227.0447767,-13.57726021013679,-3.5904379970490288,-217.12932692307692,0.0,0.46032220125198364,-0.3138560354709625,-9.554973602294922
1749451227.054317,-13.718168666938867,-3.7972354184281536,-215.5701923076923,0.0,0.6775304675102234,0.04583294689655304,-9.779156684875488
1749451227.0663033,-13.845602928870916,-3.98425809514312,-217.12932692307692,0.0,0.5362454652786255,0.10003538429737091,-9.636675834655762
1749451227.0746088,-13.960862967889119,-4.15341386760681,-215.5701923076923,0.0,0.46769532561302185,0.07054287940263748,-9.773377418518066
1749451227.084393,-13.921751596774426,-4.5806817441652665,-214.0110576923077,0.0,0.34733402729034424,0.15224507451057434,-9.925622940063477
1749451227.094423,-13.886371401455866,-4.9671888006848315,-215.5701923076923,0.0,0.31146475672721863,0.06675668060779572,-9.850695610046387
1749451227.1055253,-13.854364676931272,-5.316842746160484,-220.24759615384613,0.0,0.44338393211364746,0.16639351844787598,-10.029842376708984
1749451227.115387,-13.82540846535879,-5.63317169805204,-224.925,0.0,0.34673619270324707,0.15045161545276642,-9.877199172973633
1749451227.1270733,-13.799211063684973,-5.782312290976029,-223.36586538461538,0.0,0.30349379777908325,0.30907347798347473,-9.91884708404541
1749451227.1346042,-13.7755089120959,-5.7802092935268865,-218.68846153846152,0.0,0.36028677225112915,0.2463022619485855,-10.039407730102539
1749451227.14446,-13.754063814412348,-5.778306555475632,-223.36586538461538,0.0,0.3046894669532776,0.0536046177148819,-9.890949249267578
1749451227.154689,-13.734660449501071,-5.776584972236243,-217.12932692307692,0.0,0.3086749017238617,0.1592196524143219,-9.984407424926758
1749451227.1783638,-13.717104139104368,-5.775027270782775,-210.89278846153846,0.0,0.1942918300628662,0.15543347597122192,-9.903303146362305
1749451227.1846533,-13.414734108247298,-5.773617831730737,-217.12932692307692,0.0,0.18871217966079712,0.29193592071533203,-10.03482437133789
1749451227.1947143,-13.141140699137178,-5.909347096256122,-217.90889423076922,0.0,0.08190148323774338,0.13271626830101013,-9.931002616882324
1749451227.2043607,-12.607114760434712,-6.169161104432397,-216.3497596153846,0.0,0.13211844861507416,0.024909209460020065,-10.00493335723877
1749451227.215097,-12.123904214695825,-6.40425243536382,-211.67235576923076,0.0,0.18133904039859772,-0.009365862235426903,-10.043991088867188
1749451227.2266707,-11.54344246811302,-6.616974876204877,-209.33365384615382,0.0,0.03766272962093353,-0.08010800927877426,-9.95750617980957
1749451227.234598,-10.946597103795312,-6.740962288785112,-214.0110576923077,0.0,0.08827823400497437,0.12235404551029205,-10.154987335205078
1749451227.2443576,-10.191697792630283,-6.716159774492366,-219.46802884615386,0.0,-0.052608244121074677,0.032880160957574844,-10.00911808013916
1749451227.254409,-9.36539501876509,-6.556726070282194,-216.34975168521586,0.0,0.10043393075466156,0.36925411224365234,-10.243463516235352
1749451227.2647266,-8.474481081420448,-6.412460266629421,-212.45192307692307,0.0,0.140487939119339,0.0005978196859359741,-10.098791122436523
1749451227.274203,-7.668323415754823,-6.2819190564933125,-214.0110576923077,0.0,0.5832740068435669,0.390177845954895,-10.513679504394531
1749451227.2841456,-6.938857475645914,-6.16379654692657,-213.23149038461537,0.0,0.14606760442256927,-0.37682652473449707,-9.753250122070312
1749451227.2942631,-6.278786401614564,-6.056911156574613,-210.89278846153846,0.0,0.5747052431106567,0.3618810176849365,-10.211978912353516
1749451227.304104,-5.967947053921446,-5.960193767580905,-207.77451923076922,0.0,0.2528782784938812,-0.2552695870399475,-9.57490062713623
1749451227.314177,-5.75828714774505,-5.872677010491728,-210.89278846153846,0.0,0.4788546562194824,0.4282391369342804,-10.007524490356445
1749451227.3241248,-5.568571829903727,-5.793485572842003,-217.12932692307692,0.0,0.3501238524913788,0.11657509207725525,-9.735116958618164
1749451227.334124,-5.39690369003842,-6.064292808635886,-210.89278846153846,0.0,0.5898500680923462,0.22059597074985504,-9.756439208984375
1749451227.3441012,-5.313175030599886,-6.309338915782106,-209.33365384615382,0.0,0.6115709543228149,0.33537757396698,-9.709808349609375
1749451227.3541386,-5.38062937176487,-6.668061728395601,-210.89278846153846,0.0,0.369652658700943,0.13630321621894836,-9.425246238708496
1749451227.364101,-5.441667021876711,-6.992660518410973,-210.89278846153846,0.0,0.6880919933319092,0.5051587820053101,-9.565733909606934
1749451227.3741243,-5.496898394627702,-7.286381471511391,-214.0110576923077,0.0,0.6474401950836182,0.22876617312431335,-9.302892684936523
1749451227.3840868,-5.260440258959567,-7.415175154448614,-212.45192307692307,0.0,0.8638514280319214,0.40990597009658813,-9.56015396118164
1749451227.3941398,-5.046475381494398,-7.531717241317755,-210.89278846153846,0.0,0.6920775175094604,0.19030636548995972,-9.266824722290039
1749451227.4040768,-4.852864041890131,-7.63717319196874,-214.0110576923077,0.0,0.6721501350402832,0.2048533409833908,-9.386188507080078
1749451227.4141083,-4.677670073725725,-7.732597594789662,-214.0110576923077,0.0,0.6346866488456726,0.30688148736953735,-9.388978958129883
1749451227.4241195,-4.5191414980327895,-7.81894471520738,-215.5701923076923,0.0,0.6763348579406738,0.3009032607078552,-9.355899810791016
1749451227.4343846,-4.2324755040745945,-7.897078040280546,-215.5701923076923,0.0,0.7935077548027039,0.34255144000053406,-9.571313858032227
1749451227.4440591,-3.6866437476201703,-7.967778915006635,-210.89278846153846,0.0,0.600810170173645,0.09306080639362335,-9.39455795288086
1749451227.4542804,-3.0495168909394703,-8.031754356836192,-215.5701923076923,0.0,0.567531406879425,0.028695419430732727,-9.44597053527832
1749451227.4640899,-2.472996807425263,-7.952659081406251,-215.5701923076923,0.0,0.6649762392044067,0.0771189033985138,-9.51292610168457
1749451227.474119,-1.9513182486621137,-7.8810877511591775,-218.68846153846152,0.0,0.7060266733169556,0.016539722681045532,-9.530263900756836
1749451227.4841104,-1.7656991718748978,-7.816324647956025,-220.24759615384613,0.0,0.6946680545806885,0.07253562659025192,-9.656004905700684
1749451227.4941316,-1.597737116176563,-8.031693541048377,-215.5701923076923,0.0,0.5663357973098755,-0.09246299415826797,-9.56155014038086
1749451227.5042343,-1.445752453400637,-8.22657546514113,-212.45192307692307,0.0,0.5362454056739807,-0.13211844861507416,-9.671747207641602
1749451227.5141678,-1.3082253312814098,-8.402919246704458,-212.45192307692307,0.0,0.5290716290473938,-0.11856783926486969,-9.707418441772461
1749451227.5240998,-1.1837804744204716,-8.562488328910222,-214.0110576923077,0.0,0.6420598030090332,0.02351430058479309,-9.747272491455078
1749451227.5341184,-0.7847387317296219,-8.569892034699656,-212.45192307692307,0.0,0.6619871258735657,-0.036068543791770935,-9.618541717529297
1749451227.5441294,-0.42365582020630155,-8.576591463246865,-210.89278846153846,0.0,0.7339249849319458,-0.06297047436237335,-9.655606269836426
1749451227.554376,-0.09692090471471038,-8.582653608949025,-209.33365384615382,0.0,0.7873302698135376,-0.3007039725780487,-9.61355972290039
1749451227.5641418,-0.23091864979091378,-8.725125455316155,-210.89278846153846,0.0,0.7494682669639587,0.06376757472753525,-9.805061340332031
1749451227.5783627,-0.49538720388128876,-9.128013214308325,-214.0110576923077,0.0,0.26343977451324463,0.0001992732286453247,-9.510135650634766
1749451227.5845053,-0.7346982024753278,-9.492576299161065,-214.79062499999998,0.0,0.3616816997528076,0.281374454498291,-9.806655883789062
1749451227.5946782,-0.9512447573524744,-9.8224603434551,-215.5701923076923,0.0,0.30110251903533936,0.035869255661964417,-9.69287109375
1749451227.604321,-1.1471923353903255,-10.120964189657684,-214.79062499999998,0.0,0.32142841815948486,0.017934631556272507,-9.83276081085205
1749451227.6144264,-1.3245004133538008,-10.185595436397389,-215.5701923076923,0.0,0.5163180828094482,-0.08110438287258148,-9.931002616882324
1749451227.627403,-1.4849420727519917,-10.244078640293086,-216.3497596153846,0.0,0.37602943181991577,-0.17755284905433655,-9.767797470092773
1749451227.634609,-1.6301217307193432,-10.29699863358074,-214.79062499999998,0.0,0.27918243408203125,0.010362233966588974,-9.90609359741211
1749451227.644375,-1.7614911842359628,-10.34488461633919,-214.79062499999998,0.0,0.09724555164575577,-0.06775306165218353,-9.744083404541016
1749451227.6543677,-1.8803641281337031,-10.388215448504166,-213.23149038461537,0.0,0.3290008306503296,0.08389422297477722,-9.962687492370605
1749451227.6647232,-1.9879292920713596,-10.427424438477447,-209.33366177632257,0.0,0.35171806812286377,-0.040651835501194,-9.938973426818848
1749451227.6769814,-2.085262327851174,-10.46290367621813,-209.33366177632257,0.0,0.32222551107406616,-0.07612253725528717,-10.011110305786133
1749451227.684426,-2.1733365659516135,-10.495007954147608,-210.89278846153846,0.0,0.19548746943473816,-0.0918651670217514,-9.977832794189453
1749451227.694483,-2.2530327488430872,-10.455567229881847,-214.0110576923077,0.0,0.14646615087985992,-0.13371264934539795,-10.053556442260742
1749451227.704442,-2.3251478384207513,-10.419878301501093,-209.33365384615382,0.0,0.13849520683288574,-0.07133997231721878,-10.070892333984375
1749451227.7150264,-2.3904029856294606,-10.387584279697249,-206.2153846153846,0.0,0.15463638305664062,0.0316845178604126,-10.162958145141602
1749451227.7256155,-2.449450741977665,-10.358362224234282,-206.2153846153846,0.0,0.06954650580883026,-0.02769903838634491,-10.214967727661133
1749451227.7345304,-2.5028815850557886,-10.33191991454423,-209.33365384615382,0.0,0.01494552195072174,-0.19449110329151154,-10.093011856079102
1749451227.744582,-2.5512298233145736,-10.307992927520312,-207.77451923076922,0.0,0.07592327147722244,-0.0723363533616066,-10.13067626953125
1749451227.7543821,-2.5949789391513973,-10.286341993284971,-203.0971153846154,0.0,0.11438308656215668,0.06476394832134247,-10.16455078125
1749451227.7651038,-2.634566423735586,-9.992779295638321,-203.0971153846154,1.571945898867826,0.11876711249351501,0.1528429090976715,-10.1607666015625
1749451227.7754242,-2.6703881519211006,-9.72714172682182,-206.2153846153846,3.374784013764315,0.0316845141351223,0.1819368451833725,-9.993375778198242
1749451227.7848246,-2.7028023409958113,-9.486772911102696,-217.12932692307692,5.054569476308468,0.18711797893047333,0.2869540750980377,-10.103972434997559
1749451227.7945416,-2.732133132854922,-9.269269160290706,-217.12932692307692,6.816671443757992,0.1372995674610138,0.564143717288971,-10.224931716918945
1749451227.8043823,-2.7586738354203253,-9.072455436853248,-203.0971153846154,8.458501249381197,0.5404301881790161,0.3445442020893097,-9.966872215270996
1749451227.8181584,-2.7826898557201227,-8.894363603537803,-207.77451923076922,10.86566749572684,0.04583294689655304,-0.5545786023139954,-9.291534423828125
1749451227.8254728,-2.8044213539591243,-8.733212741997773,-215.5701923076923,15.13178542762266,0.6486358642578125,0.9479448795318604,-9.990585327148438
1749451227.8350596,-2.824085645121063,-8.45040638708942,-206.2153846153846,19.106719859792786,-0.2869540750980377,-0.383402556180954,-9.38100814819336
1749451227.8445435,-2.8418793721185533,-8.194501964654162,-206.2153846153846,22.810345523609893,0.8656448125839233,0.8913511037826538,-10.677482604980469
1749451227.8543463,-2.857980472222308,-7.825955473956602,-218.68846153846152,25.789709838797712,-0.16998045146465302,-0.44318461418151855,-9.394956588745117
1749451227.866534,-2.87254995643391,-7.35548198296149,-215.5701923076923,28.565717961911844,0.6904832720756531,0.8285799622535706,-10.044189453125
1749451227.8760135,-2.8857335195958806,-6.929762246114006,-204.65624206983125,31.152249960625,0.43282240629196167,0.09007170051336288,-9.658197402954102
1749451227.8844674,-2.8976629973401393,-6.54453906603599,-207.77451923076922,32.498986597172504,0.6681646108627319,0.30508798360824585,-9.718578338623047
1749451227.894576,-2.908457684444351,-6.19596021091949,-212.45192307692307,33.69972552544571,0.668961763381958,0.2000707983970642,-9.966672897338867
1749451227.9045,-2.9182255277797213,-5.8805398922080245,-209.33365384615382,33.91991426681649,0.013949159532785416,0.05480026453733444,-9.633288383483887
1749451227.9167025,-2.927064205779727,-5.595123906710541,-210.89278846153846,33.71181545443598,0.381808340549469,0.35131949186325073,-10.079662322998047
1749451227.9247074,-2.9350621052244588,-5.3368580945691475,-210.89278846153846,33.44830132993806,0.20704534649848938,0.04842350259423256,-9.54859733581543
1749451227.9344823,-2.94229920510843,-5.1031597976602665,-207.77451923076922,32.90982258281867,0.6896861791610718,0.3429499864578247,-10.00672721862793
1749451227.9443889,-2.94884787643053,-4.891692033013208,-212.45192307692307,32.408097632352764,0.28057733178138733,0.10920197516679764,-9.567726135253906
1749451227.9546335,-2.9547736059040175,-4.7003401229803154,-210.89278846153846,31.940617852210103,0.4105037450790405,0.17017972469329834,-9.7169828414917
1749451227.9649522,-2.960135650823654,-4.52719054846038,-210.89278846153846,31.50504584221362,0.431427538394928,0.07811527699232101,-9.659591674804688
1749451227.9744732,-2.9649876316386554,-4.370511813707551,-210.89278846153846,31.099203741280892,0.5745059847831726,-0.00099636847153306,-9.588650703430176
1749451227.984402,-2.9693780681571877,-4.228737131373817,-208.55408653846155,30.721062338072127,0.6281106472015381,0.20086786150932312,-9.752254486083984
1749451227.9944522,-2.9733508647444467,-4.100448754635484,-206.99495985324566,30.329514431820197,0.4549418091773987,0.23713567852973938,-9.54062557220459
1749451228.0047486,-2.976945749366313,-3.984363799724903,-209.33366177632257,29.930785882185045,0.5587633848190308,0.2437116950750351,-9.541622161865234
1749451228.0164502,-2.980198670869012,-3.879321417092772,-209.33366177632257,29.449444951605432,0.5998137593269348,0.17097681760787964,-9.547002792358398
1749451228.024657,-2.983142158467575,-4.058241095842974,-207.77451923076922,28.973111260563776,0.6647770404815674,0.04184747114777565,-9.440589904785156
1749451228.034326,-2.985805647037991,-4.288633532344788,-209.33366177632257,28.529289659677413,0.6721501350402832,0.06615886092185974,-9.499774932861328
1749451228.0442245,-2.988215771465966,-4.497109906300876,-212.45192307692307,28.115761040550915,0.6841065287590027,0.1016295850276947,-9.470083236694336
1749451228.055017,-2.9903966329957825,-4.685754981450959,-213.23149038461537,27.903960742616682,0.6649762392044067,-0.07273488491773605,-9.488814353942871
1749451228.0662363,-2.9923700402427396,-4.856455208546654,-214.0110576923077,27.706616844476482,0.6338895559310913,0.13869448006153107,-9.66337776184082
1749451228.0749533,-2.994155727279308,-5.010917589859006,-217.12932692307692,27.522742626525858,0.1934947371482849,0.01932954043149948,-9.285954475402832
1749451228.0844173,-2.995771550975854,-5.150686749201202,-218.68846153846152,27.3319494446164,0.16400223970413208,0.23932768404483795,-9.522491455078125
1749451228.094329,-2.997233669569343,-5.277160378166712,-210.89278846153846,27.15417882459273,0.3017003536224365,-0.0625719428062439,-9.404521942138672
1749451228.1066628,-2.9985567042457117,-5.391603213045226,-203.0971153846154,26.926553096012572,0.5181115865707397,0.04981841892004013,-9.541024208068848
1749451228.1148224,-2.999753885351723,-5.495159682185556,-207.77451923076922,26.71446392955349,0.6030021905899048,0.022717192769050598,-9.665769577026367
1749451228.1246066,-3.0008371846984376,-5.588865350279125,-209.33365384615382,26.57883969651796,0.2357407510280609,-0.2771896719932556,-9.360681533813477
1749451228.1350176,-3.0018174352793228,-5.6736572740068825,-209.33365384615382,26.509235112086895,0.3321892321109772,-0.144672691822052,-9.554574966430664
1749451228.144952,-3.0027044396001874,-5.750383372606117,-210.89278846153846,26.303684568665535,0.3292000889778137,-0.1932954639196396,-9.508343696594238
1749451228.155344,-3.0035070677042404,-5.819810907062828,-207.77451923076922,25.90889740032,0.513129711151123,0.06297048181295395,-9.78931999206543
1749451228.174377,-3.0042333458725223,-5.8826341527215895,-209.33365384615382,25.54105637447878,0.16599497199058533,-0.22318652272224426,-9.78573226928711
1749451228.1842875,-3.004890536886716,-5.939481342038993,-207.77451923076922,25.164248287307945,0.19050563871860504,-0.2779867649078369,-9.794699668884277
1749451228.1968842,-3.0054852126569633,-5.990920946908216,-204.65624206983125,24.807734253032542,0.31983426213264465,-0.13052424788475037,-9.941763877868652
1749451228.2053745,-3.006023319940967,-6.037467363377953,-204.65624206983125,24.47555403383171,0.34892821311950684,0.0308874249458313,-10.105964660644531
1749451228.2148352,-3.006510239811567,-6.079586055612903,-210.89278846153846,24.166046728578976,0.11557874083518982,-0.08409349620342255,-9.964282035827637
1749451228.224415,-3.0069508414674693,-6.1176982105354165,-207.77451923076922,23.87766480072343,0.09047023952007294,0.10501722991466522,-10.032033920288086
1749451228.2343554,-3.0073495309252327,-6.15218494969472,-196.86056899290816,23.784508726913632,0.11996275186538696,0.012753516435623169,-9.962488174438477
1749451228.2449148,-3.007710295079435,-6.183391140482407,-198.4197115384615,23.733045339590205,0.35211658477783203,0.10541576892137527,-10.06511402130127
1749451228.2547762,-3.0080367415716185,-6.211628844806356,-198.4197115384615,23.685094578494184,0.29552286863327026,0.022318650037050247,-10.01968002319336
1749451228.2643316,-3.0083321348667047,-6.237180439709805,-195.3014423076923,23.60508235799132,0.2347443848848343,0.16938263177871704,-10.057939529418945
1749451228.2744107,-3.0085994288976448,-6.26030144114179,-201.53798076923076,23.31303509887378,0.07791600376367569,0.09983611106872559,-9.988792419433594
1749451228.2847939,-3.0088412966047478,-6.2812230591166305,-204.65624206983125,22.9288071721009,0.2186032235622406,0.23474439978599548,-10.16873550415039
1749451228.2942202,-3.009060156665085,-6.300154509814075,-203.0971153846154,22.570804668132762,0.14248068630695343,0.04324238747358322,-10.050168991088867
1749451228.304135,-3.00925819767926,-6.3172851077411,-204.65624206983125,22.073488582578573,0.2217915952205658,0.13132135570049286,-10.19145393371582
1749451228.3142097,-3.009437400057414,-6.332786158876973,-203.0971153846154,21.610116736102842,0.018731728196144104,-0.0512133352458477,-10.031237602233887
1749451228.3241084,-3.009599555823329,-6.346812673733055,-196.86056899290816,21.178372269464212,0.12155694514513016,0.13510754704475403,-10.214170455932617
1749451228.3341486,-3.009746286534664,-6.3595049174579055,-204.65624206983125,21.103961386475717,-0.028097588568925858,0.014148430898785591,-10.122505187988281
1749451228.3440962,-3.009879059498532,-6.370989812488774,-206.2153846153846,21.056150556725605,0.09923829138278961,0.23494365811347961,-10.325166702270508
1749451228.3541703,-3.0099992024445723,-6.381382207775968,-201.53798076923076,21.01160304839625,-0.09545208513736725,0.04403948411345482,-10.133464813232422
1749451228.364128,-3.010107916802245,-6.390786027272361,-206.2153846153846,20.948574975000056,0.033278703689575195,0.140487939119339,-10.277141571044922
1749451228.3741791,-3.0102062897151263,-6.399295309172915,-203.0971153846154,20.337773461424533,-0.04384021461009979,0.02650339901447296,-10.070096969604492
1749451228.3841197,-3.0102953049123458,-6.612472580992573,-199.97884615384615,19.768662118739336,0.09066952764987946,0.12075984477996826,-10.082052230834961
1749451228.3941574,-3.0103758525458755,-6.942357731411064,-199.97884615384615,19.238395390226945,0.17675575613975525,0.12315112352371216,-10.063918113708496
1749451228.4041185,-3.0104487380920504,-7.5148324955640255,-206.2153846153846,18.855629186999728,0.20784243941307068,0.11557873338460922,-9.994173049926758
1749451228.414172,-3.0105146904063327,-8.032850642445709,-206.9949519230769,18.873254268426813,0.2680231034755707,0.43840205669403076,-9.943357467651367
1749451228.4241467,-3.010574369011865,-8.50159235352493,-203.09710745444664,18.985630069775038,0.3397616147994995,0.02869541198015213,-9.86544132232666
1749451228.4341958,-3.0106283706947026,-8.925745045912484,-203.09710745444664,19.157030896982846,0.8499022126197815,0.48802122473716736,-10.309223175048828
1749451228.444117,-3.010677235471674,-9.309550246532242,-205.43580937752355,19.32488945690383,0.38380110263824463,-0.47327497601509094,-9.436006546020508
1749451228.454255,-3.0107214519905487,-9.656846007390405,-206.2153846153846,19.481290854569416,0.7552472352981567,0.39217057824134827,-10.272756576538086
1749451228.4641383,-3.0107614624165153,-9.971105286095552,-203.87668269230767,19.627017096968352,0.43899989128112793,-0.11318744719028473,-9.43919563293457
1749451228.4741843,-3.010797666853834,-10.255470675434738,-200.75841346153845,19.72691018964284,0.6145600080490112,0.2943271994590759,-9.743288040161133
1749451228.484141,-3.010830427346878,-10.649769392282275,-199.97884615384615,19.681031493811595,0.624722957611084,0.3907756805419922,-9.766403198242188
1749451228.4941773,-3.0108600715005767,-11.006560474455831,-203.0971153846154,19.529181707168124,0.39615607261657715,0.08588696271181107,-9.483434677124023
1749451228.5041528,-3.0108868957564683,-11.329411832777144,-206.2153846153846,19.25386885361179,0.708816409111023,0.4479672312736511,-9.896129608154297
1749451228.5143518,-3.010911168357111,-11.621551980829423,-204.65624206983125,19.131174992529,0.23434583842754364,-0.11438308656215668,-9.448362350463867
1749451228.5242767,-3.0109331320285118,-11.885902320093194,-207.77451923076922,19.125958118275726,0.6544147729873657,0.11059688776731491,-9.654411315917969
1749451228.5341895,-3.010953006407384,-12.125106353961094,-207.77451923076922,18.836092676129997,0.5876580476760864,0.04922060668468475,-9.517311096191406
1749451228.544162,-3.0109709902375172,-12.341556122771802,-199.97884615384615,18.532798044715346,0.5338541865348816,0.06855014711618423,-9.459918975830078
1749451228.554171,-3.010987263357212,-12.537416124213426,-198.4197115384615,18.2502047454495,0.6396684646606445,0.10461868345737457,-9.547599792480469
1749451228.5642056,-3.0110019884976658,-12.71464495830038,-201.53798076923076,17.98689981183595,0.5663357973098755,-0.15642982721328735,-9.37961196899414
1749451228.5742157,-3.0110153129102826,-13.01199986983749,-204.65624206983125,17.741566719206478,0.5902485847473145,0.045633669942617416,-9.50296401977539
1749451228.5842075,-3.011027369839189,-13.418053875080448,-206.2153846153846,17.52852571938766,0.5470062494277954,-0.039057642221450806,-9.386587142944336
1749451228.5955346,-3.0110382798536737,-14.059453331168996,-206.2153846153846,17.417561120378366,0.6097774505615234,0.1412850320339203,-9.460318565368652
1749451228.604775,-3.011048152053882,-14.639839714043916,-206.2153846153846,17.359818158207577,0.668961763381958,0.08907533437013626,-9.415283203125
1749451228.6144898,-3.011057085161816,-15.165016887533955,-201.53798076923076,17.30601643374863,0.6492336392402649,0.0033876486122608185,-9.308272361755371
1749451228.6243434,-3.0110651685085545,-15.640236623374014,-199.97884615384615,17.28344779492456,0.7765694856643677,0.01972809061408043,-9.363869667053223
1749451228.634965,-3.0110724829275655,-16.070251118922492,-203.0971153846154,17.262419575349764,0.7656095027923584,-0.05460099130868912,-9.306878089904785
1749451228.645986,-3.0110791015630385,-16.459360519134876,-204.65624206983125,17.148114831278324,0.8070583939552307,0.17277027666568756,-9.472274780273438
1749451228.6548502,-3.0110850906013287,-16.674469568066296,-203.0971153846154,17.041611941338328,0.6998491287231445,0.0731334388256073,-9.34274673461914
1749451228.6645205,-3.011090509932819,-16.869116385502533,-199.97884615384615,16.83834860628686,0.706624448299408,0.13749882578849792,-9.477256774902344
1749451228.674442,-3.011095413750824,-17.045247439617953,-199.97884615384615,16.64895898140571,0.6316975355148315,0.03387652337551117,-9.411096572875977
1749451228.685305,-3.011099851093524,-17.204624040953707,-206.2153846153846,16.693210392706266,0.5762994289398193,0.06217338517308235,-9.531259536743164
1749451228.6956725,-3.0111038663343455,-17.48582630547015,-206.2153846153846,16.734441430190486,0.600810170173645,0.05460098385810852,-9.641059875488281
1749451228.7044337,-3.0111074996256972,-17.877262789496893,-203.0971153846154,16.750885562351048,0.6259186267852783,0.03646708279848099,-9.55337905883789
1749451228.7145348,-3.0111107873004928,-18.2314639085234,-199.97884615384615,16.76620730259799,0.652023434638977,-0.20206351578235626,-9.704428672790527
1749451228.724383,-3.01111376223548,-18.551971673739935,-203.0971153846154,16.698903964403947,0.6265164613723755,0.09106806665658951,-9.859264373779297
1749451228.7349212,-3.0111164541800086,-18.568021249870757,-207.77451923076922,16.63619440603428,0.06117701157927513,-0.07652109861373901,-9.424051284790039
1749451228.7447832,-3.011118890053524,-18.58254411132444,-201.53798076923076,16.577765079697144,0.16699133813381195,0.3094720244407654,-9.85268783569336
1749451228.7550426,-3.0111210942147615,-18.595685486715528,-198.4197115384615,16.480115127475916,0.06057920306921005,0.09365862607955933,-9.619338989257812
1749451228.7642903,-3.0111230887053333,-18.607576789797925,-196.86056899290816,16.36671026660812,0.30767858028411865,0.11996275186538696,-9.882379531860352
1749451228.7744727,-3.011124893470145,-18.618336933602457,-198.4197115384615,16.21741470849236,0.4063190221786499,0.12873078882694244,-10.015494346618652
1749451228.784279,-3.0111265265568448,-18.62807351956717,-199.97884615384615,16.04572070885136,0.15981750190258026,-0.25228047370910645,-9.692273139953613
1749451228.797352,-3.0111280042962996,-18.636883913551713,-202.31754807692306,15.877003317226292,0.2534761130809784,0.001992739737033844,-10.010711669921875
1749451228.8050547,-3.011129341465904,-18.644856219495928,-203.0971153846154,15.719801707291477,0.08628550171852112,-0.06775304675102234,-9.84571361541748
1749451228.814859,-3.011130551437354,-18.65207016045926,-199.97884615384615,15.51635769894157,0.4045255780220032,0.1926976442337036,-10.117523193359375
1749451228.8244696,-3.0111316463103646,-18.59010400413632,-194.52186706983127,15.324967648180145,0.31983423233032227,0.14845889806747437,-10.089027404785156
1749451228.8351731,-3.0111326370336653,-18.53403237359854,-196.08101754555335,15.123505368937924,0.13789737224578857,0.10202812403440475,-9.978230476379395
1749451228.8466578,-3.0111335335144895,-18.483294552540535,-200.75841346153845,14.935793869056544,0.13450972735881805,0.16300587356090546,-9.998556137084961
1749451228.8544505,-3.0111343447176453,-18.43738316275173,-199.97884615384615,14.753450336113017,0.24490734934806824,0.11637583374977112,-10.029842376708984
1749451228.8642979,-3.011135078755164,-18.327348005585293,-197.64014423076924,14.558196967693288,0.32381969690322876,0.16121239960193634,-10.037015914916992
1749451228.874347,-3.0111357429674213,-18.159288849409602,-196.86056899290816,14.37627059030483,0.25148338079452515,0.37682652473449707,-10.025857925415039
1749451228.885483,-3.0111363439965393,-18.00721630735189,-196.86056899290816,14.206761572060703,0.07970947027206421,0.35869261622428894,-9.997560501098633
1749451228.8946364,-3.011136887852809,-17.869609653991574,-199.97884615384615,14.08216027492253,0.11876710504293442,0.26523327827453613,-9.90429973602295
1749451228.9045436,-3.0111373799747936,-17.74509282279506,-199.97884615384615,13.966063621688246,0.2704143822193146,0.18412888050079346,-9.879191398620605
1749451228.9144778,-3.011137825283713,-17.837896686663274,-207.77451923076922,13.857891129091682,0.38160908222198486,0.2724071145057678,-9.940567970275879
1749451228.9252625,-3.011138228232656,-17.92187259022228,-206.2153846153846,13.757101934669855,0.24251607060432434,0.03447434678673744,-9.734718322753906
1749451228.9362545,-3.0111385928511125,-18.134846642454658,-201.53798076923076,13.663192092450654,0.23554149270057678,0.21900177001953125,-9.890748977661133
1749451228.9443305,-3.0111389227852667,-18.327561554586264,-201.53798076923076,13.575692053222983,0.12494459003210068,0.05778937041759491,-9.826583862304688
1749451228.954375,-3.01113922133446,-18.63892803871933,-195.3014423076923,13.552469008822456,0.1747630089521408,0.21740758419036865,-10.035223007202148
1749451228.9642763,-3.011139491484185,-18.920675810344388,-196.86056899290816,13.530831050031203,0.06795231997966766,0.09883974492549896,-10.027849197387695
1749451228.9757051,-3.011139735935938,-19.175622347177683,-195.3014423076923,13.51066998705527,-0.1365024596452713,0.22637490928173065,-10.212377548217773
1749451228.9846165,-3.011139957134237,-19.132347201659638,-185.9466346153846,13.42844665007087,0.20046931505203247,0.16758915781974792,-10.170928955078125
1749451228.9945955,-3.0111401572910657,-18.95620364451839,-185.9466346153846,13.251066366792541,-0.4824415445327759,-0.783145546913147,-9.179143905639648
1749451229.0043862,-3.011140338407991,-18.659830773042206,-201.53798076923076,12.95575948623326,0.3869894742965698,1.1322729587554932,-10.459675788879395
1749451229.0183203,-3.0111405022961835,-18.391650347839963,-203.0971153846154,12.680608735017803,-0.053006794303655624,-0.9469485282897949,-9.566132545471191
1749451229.0246437,-3.011140650594524,-17.738025695267762,-199.97884615384615,12.42423835939009,0.9591041803359985,-0.09365863353013992,-10.442139625549316
1749451229.0346563,-3.011140784785997,-17.146577036770797,-207.77451923076922,12.220848766712452,0.07811527699232101,0.039655447006225586,-9.776166915893555
1749451229.044338,-3.0111409062125163,-16.611389885764098,-201.53798076923076,12.16075320536175,0.0496191531419754,0.059582822024822235,-9.851293563842773
1749451229.054952,-3.0111410160883474,-16.1271123707376,-201.53798076923076,12.295041547070097,0.7263525724411011,0.5424229502677917,-10.164153099060059
1749451229.0651546,-3.0111411155122485,-15.688901716541034,-204.65624206983125,12.420164057018226,0.14168357849121094,-0.2747984230518341,-9.403326034545898
1749451229.074409,-3.011141205478459,-15.292375816632436,-201.53798076923076,12.53674634775588,0.8764057159423828,0.4477679431438446,-10.136852264404297
1749451229.0846925,-3.0111412868866405,-14.933569412012721,-196.86056899290816,12.668845989086272,0.13371263444423676,-0.2761933207511902,-9.363670349121094
1749451229.094441,-3.0111413605508752,-14.60889443863569,-196.86056899290816,12.722033836172564,0.5513902902603149,0.2275705337524414,-9.779754638671875
1749451229.1045525,-3.0111414272078054,-14.315104146767576,-203.0971153846154,12.678666875329501,0.521100640296936,-0.06396685540676117,-9.479049682617188
1749451229.1145084,-3.011141487524,-14.049260633489695,-199.97884615384615,12.731184399215012,0.5681292414665222,-0.010561496019363403,-9.540626525878906
1749451229.1243055,-3.0111415421026217,-13.808705463669268,-195.3014423076923,12.78011734693945,0.47347426414489746,0.15742619335651398,-9.698650360107422
1749451229.1346474,-3.0111415914894564,-13.591033085608093,-192.18317307692308,12.709547487910392,0.37662723660469055,0.02470993995666504,-9.388779640197754
1749451229.1442952,-3.011141636178372,-13.394066775525555,-195.3014423076923,12.59169006344561,0.5533829927444458,-0.04364093393087387,-9.6085786819458
1749451229.1573937,-3.011141676616258,-13.215836870320832,-199.97884615384615,12.48117043803454,0.5988173484802246,-0.384398877620697,-9.415680885314941
1749451229.1746278,-3.0111417132074934,-13.054561070941874,-197.64014423076924,12.37819431401632,0.5507924556732178,-0.20465406775474548,-9.474666595458984
1749451229.1843548,-3.0111417463179904,-12.908626619394893,-197.64014423076924,12.272499349116371,0.5067529678344727,-0.19289691746234894,-9.42444896697998
1749451229.1949008,-3.011141776278854,-12.776574171164418,-200.75841346153845,12.17401857908882,0.6175491213798523,-0.1821361482143402,-9.605588912963867
1749451229.2067943,-3.0111418033896924,-12.657083201768145,-205.4358173076923,12.076951108544902,0.47745972871780396,-0.22776979207992554,-9.499576568603516
1749451229.214395,-3.0111418279216147,-12.548958801512113,-204.65625,11.9766658121134,0.5009740591049194,-0.14825960993766785,-9.617546081542969
1749451229.2244363,-3.0111418501199396,-12.451119726393758,-196.86056899290816,11.81616467199543,0.4003407955169678,-0.17416518926620483,-9.586259841918945
1749451229.2345226,-3.0111418702066506,-12.362587585661899,-193.74231562247644,11.662077665041226,0.4955936372280121,0.008768044412136078,-9.719175338745117
1749451229.246219,-3.011141888382615,-12.282477057909217,-193.74231562247644,11.505250449013724,0.534451961517334,-0.02510848268866539,-9.729736328125
1749451229.254504,-3.011141904829592,-12.209987037858184,-194.52186706983127,11.354826391994226,0.564940869808197,-0.05938354879617691,-9.666566848754883
1749451229.2644327,-3.0111419197120517,-12.144392625308292,-198.4197115384615,11.21466950770015,0.614161491394043,0.08748114109039307,-9.684501647949219
1749451229.2743342,-3.0111419331788185,-12.08503787613404,-199.97884615384615,11.088380072139424,0.5129304528236389,-0.19190055131912231,-9.676530838012695
1749451229.2845204,-3.0111419453645603,-12.031329242843686,-199.97884615384615,11.018014874295309,0.6972585916519165,0.32202625274658203,-9.979425430297852
1749451229.294176,-3.011141956391134,-11.982729639104328,-207.77451923076922,10.986395813839096,0.018333178013563156,0.16181021928787231,-9.413090705871582
1749451229.30419,-3.011141966368806,-11.93875306887857,-207.77451923076922,11.00572326830931,0.13231772184371948,0.7205736041069031,-9.967867851257324
1749451229.3141086,-3.011141975397353,-11.898959766464156,-206.2153846153846,11.023731530109682,0.048622772097587585,0.10840486735105515,-9.522491455078125
1749451229.3241608,-3.01114198356706,-11.86295179883694,-203.0971153846154,11.04051064054921,0.40651828050613403,0.1430785059928894,-9.848703384399414
1749451229.3341432,-3.0111419909596244,-11.830369086320653,-196.86056899290816,10.968987826315558,0.5212999582290649,0.4748691916465759,-10.01091194152832
1749451229.3440907,-3.0111419976489713,-11.80088580179013,-195.3014423076923,10.854510188247271,0.1697811782360077,-0.01534406840801239,-9.581477165222168
1749451229.354181,-3.0111420037019947,-11.911192068864027,-198.4197115384615,10.739180675099565,0.3925691246986389,0.24590371549129486,-9.786728858947754
1749451229.364139,-3.011142009179225,-12.011005460889441,-198.4197115384615,10.631722961551525,0.2186032235622406,-7.450580596923828e-09,-9.593631744384766
1749451229.3742654,-3.0111420141354337,-12.101324111786628,-196.86056899290816,10.53159975903541,0.564940869808197,0.11338672041893005,-9.899517059326172
1749451229.3841136,-3.0111420186201836,-12.183051208064557,-196.86056899290816,10.438310451538642,0.36845701932907104,0.11518018692731857,-9.952524185180664
1749451229.394124,-3.0111420226783223,-12.257004020686008,-195.3014423076923,10.351388592523735,0.10003538429737091,-0.027898311614990234,-9.832561492919922
1749451229.4041054,-3.0111420263504307,-12.323922077777198,-192.18317307692308,10.270399572695615,0.17894776165485382,0.007771674543619156,-9.981419563293457
1749451229.414109,-3.01114202967323,-12.384474559909036,-192.18317307692308,10.172406596476712,0.21083155274391174,-0.09565136581659317,-9.944751739501953
1749451229.4240758,-3.0111420326799485,-12.43926699190284,-195.3014423076923,10.07377283497616,0.3248160779476166,-0.07612254470586777,-9.986001968383789
1749451229.434198,-3.011142035400653,-12.488847298078552,-196.86056899290816,9.981871306909204,0.22497998178005219,0.08987243473529816,-10.12150764465332
1749451229.4440868,-3.011142037862551,-12.944666150889793,-198.4197115384615,9.896242504635513,-0.02610485628247261,-0.07951018959283829,-9.955314636230469
1749451229.4541574,-3.011142040090261,-13.357125270893768,-198.4197115384615,9.78882827992791,0.09684700518846512,0.17336809635162354,-10.171924591064453
1749451229.4640985,-3.01114204210606,-13.730349249290517,-196.86056899290816,9.65808491725193,0.09684700518846512,0.19628456234931946,-10.085241317749023
1749451229.474161,-3.011142043930106,-14.068070325864008,-198.4197115384615,9.53626542429396,0.14686469733715057,0.27499768137931824,-10.023664474487305
1749451229.4842067,-3.01114204558064,-14.373665711379976,-196.86056899290816,9.422760703589212,0.1608138531446457,0.24430954456329346,-9.98082160949707
1749451229.4941337,-3.011142047074167,-14.650191359693581,-192.18317307692308,9.317003231534162,0.20784245431423187,0.15742620825767517,-9.895133972167969
1749451229.504176,-3.0111420484256226,-15.174383833698908,-189.06489591598512,9.212145526589918,0.3252146244049072,0.20345841348171234,-9.86922836303711
1749451229.5141,-3.0111420496485213,-15.785696102496821,-190.62403846153845,9.059446357540086,0.42863768339157104,-0.13929228484630585,-9.787126541137695
1749451229.5242283,-3.0111420507550917,-16.3388573394245,-198.4197115384615,9.038333604525102,0.7000484466552734,0.030488863587379456,-9.909282684326172
1749451229.5341487,-3.0111420517563996,-16.83939915685122,-199.97884615384615,9.06059020102804,0.6440525054931641,0.5246875882148743,-9.994770050048828
1749451229.5440657,-3.0111420526624584,-17.4293119294152,-201.53798076923076,9.09374004485883,0.25885650515556335,-0.31564950942993164,-9.28515625
1749451229.5541346,-3.0111420534823283,-18.100095645465444,-192.18317307692308,9.188917715798842,0.9333978295326233,0.7604283094406128,-10.188663482666016
1749451229.5640748,-3.011142054224208,-18.707071112865982,-187.5057692307692,9.277599048277397,0.17775210738182068,-0.6554111242294312,-9.227367401123047
1749451229.57411,-3.0111420548955166,-19.256308086290822,-192.18316514675433,9.29593698394801,-1.336129903793335,3.241983413696289,-11.931312561035156
1749451229.5844011,-3.011142055502967,-19.75329893547421,-196.86056899290816,9.21661460460595,-5.373016357421875,-9.613759994506836,-3.803337335586548
1749451229.5964563,-3.0111420560526336,-20.203013568907977,-193.7423076923077,9.142706363041006,-8.249929428100586,-1.641417145729065,-7.314739227294922
1749451229.6046333,-3.011142056550013,-20.609949132926467,-192.96274038461536,9.049745266191085,-3.6568713188171387,-2.6019163131713867,-8.955160140991211
1749451229.6150188,-3.0111420570000798,-20.567220113777992,-196.0810096153846,8.925404577168925,7.761510372161865,-2.8111536502838135,-11.61566162109375
1749451229.6244612,-3.0111420574073335,-20.391569339294982,-193.7423076923077,8.838766361115637,5.866018772125244,-2.0375733375549316,-9.723957061767578
1749451229.6345892,-3.0111420577758476,-20.23262733102908,-188.28533653846154,8.758041624238928,-1.3407132625579834,-3.2256429195404053,-7.921526908874512
1749451229.64447,-3.0111420581093067,-19.951819712433668,-185.9466346153846,8.648275444000001,-2.57302188873291,0.6159548759460449,-9.511730194091797
1749451229.654411,-3.0111420584110453,-19.629231418414445,-187.50576130060048,8.511146617538625,2.1619200706481934,-1.2157686948776245,-8.522536277770996
1749451229.664261,-3.011142058684081,-19.268836832461073,-192.18316514675433,8.36157598239441,1.6551672220230103,-1.0706974267959595,-11.113691329956055
1749451229.6743488,-3.0111420589311444,-18.874232275143843,-195.3014423076923,8.202755245097583,-1.0049371719360352,1.9851644039154053,-8.433660507202148
1749451229.6867106,-3.011142059154706,-18.311687010855483,-190.62403846153845,8.054774794750296,1.0818568468093872,1.3305503129959106,-9.754646301269531
1749451229.6946914,-3.011142059357001,-17.802653820938552,-184.3875,7.916894729100812,2.6712634563446045,0.43322092294692993,-11.038764953613281
1749451229.7044125,-3.011142059540053,-17.342042373493886,-184.3875,7.782448922328463,0.15822330117225647,-0.5611546635627747,-9.589248657226562
1749451229.7144802,-3.011142059705692,-16.925246554047035,-182.82836538461538,7.669512686461944,-0.3509209454059601,0.7881274223327637,-8.619383811950684
1749451229.724662,-3.0111420598555747,-16.822068317331443,-182.82836538461538,7.63465368363403,1.0125095844268799,0.1267380565404892,-8.713241577148438
1749451229.7357545,-3.0111420599912,-16.728704902332684,-184.3875,7.531805190870158,1.826343297958374,-0.7237619757652283,-8.693912506103516
1749451229.7443595,-3.011142060113924,-16.644222674900767,-184.3875,7.423643616035886,1.2434678077697754,-1.0866392850875854,-9.141281127929688
1749451229.754336,-3.011142060224974,-16.430791856297418,-179.71009615384614,7.301323261765505,0.6480379700660706,-1.4845887422561646,-8.522735595703125
1749451229.7643566,-3.01114206032546,-16.237663627660243,-179.71009615384614,7.172221078286384,0.9098836183547974,-0.8829816579818726,-9.061572074890137
1749451229.774677,-3.0111420604163874,-16.062906706702865,-185.9466346153846,7.044802185272171,-1.0537590980529785,3.309537410736084,-11.5847749710083
1749451229.7851849,-3.011142060498665,-15.904773524215713,-185.9466346153846,6.822826709490594,-2.8027842044830322,-3.6767983436584473,-6.640197277069092
1749451229.7944677,-3.0111420605731163,-15.761682748373916,-184.3875,6.616002138396834,-1.4867808818817139,0.7022404670715332,-8.457374572753906
1749451229.804428,-3.0111420606404855,-15.632203471419054,-189.06489591598512,6.454421991131391,2.240633249282837,1.1761131286621094,-8.963329315185547
1749451229.8148308,-3.011142060701446,-15.51504090058158,-184.3875,6.35003094100753,2.721879005432129,-3.0323474407196045,-11.243219375610352
1749451229.8252935,-3.0111420607566077,-15.409023410153118,-182.82836538461538,6.209437136244599,0.8293770551681519,-1.5242443084716797,-9.605987548828125
1749451229.835691,-3.011142060806522,-15.039120912301467,-184.3875,6.078439541730392,-1.4887735843658447,-0.4513549208641052,-8.670796394348145
1749451229.8442874,-3.0111420608516886,-14.70440536069539,-184.3875,5.999711120485279,-0.7958990931510925,0.6737443208694458,-9.851692199707031
1749451229.8545644,-3.0111420608925585,-14.127559686890912,-185.9466346153846,5.942129087350565,-1.5336101055145264,-0.5717161297798157,-10.619094848632812
1749451229.8642395,-3.0111420609295405,-13.605586412797262,-182.82836538461538,5.881994298371598,0.05639445409178734,-1.0509693622589111,-9.714790344238281
1749451229.8774214,-3.011142060963005,-13.133265805673503,-182.82836538461538,5.825964000904742,0.3744352459907532,-1.183884859085083,-9.937976837158203
1749451229.8843756,-3.011142060993286,-12.705874659448396,-182.82836538461538,5.773758043462663,-0.39934444427490234,-2.3755416870117188,-7.948030471801758
1749451229.894738,-3.0111420610206863,-12.456125412606681,-179.71009615384614,5.6936191165992724,1.768753170967102,-0.8032721877098083,-9.406713485717773
1749451229.904413,-3.01114206104548,-12.367117106364399,-179.71009615384614,5.586817505989113,0.44418102502822876,0.21800538897514343,-9.95750617980957
1749451229.9146504,-3.0111420610679156,-12.286575708308318,-179.71009615384614,5.487305624197699,-0.49459728598594666,-0.5531837344169617,-9.274595260620117
1749451229.924808,-3.011142061088217,-12.213695804457878,-176.59182692307692,5.386855252120004,0.15344072878360748,0.20704533159732819,-9.500173568725586
1749451229.9345126,-3.0111420611065873,-12.147748595774575,-173.47355769230768,5.293261105973782,0.7875295877456665,-0.19608528912067413,-9.72913932800293
1749451229.9442506,-3.01114206112321,-12.088074610171576,-173.47355769230768,5.206055215028303,0.7333271503448486,-0.6761355400085449,-9.815025329589844
1749451229.9546468,-3.0111420611382513,-11.897093544811929,-178.15096153846153,5.088457623592731,0.8146307468414307,-0.26941800117492676,-9.84830379486084
1749451229.9651148,-3.011142061151862,-11.724279538392842,-179.71009615384614,4.974651440491282,0.4097066819667816,-0.14766180515289307,-9.559158325195312
1749451229.9747205,-3.0111420611641777,-11.430918100903138,-180.48966346153844,4.838951580100975,0.49758636951446533,-0.06855013221502304,-9.752452850341797
1749451229.9843533,-3.011142061175322,-11.165462647264384,-181.26922283906202,4.7125138944787786,0.5569698810577393,-0.19249838590621948,-9.517311096191406
1749451229.9943318,-3.0111420611854065,-10.856767538191253,-178.93052091598508,4.572792257154101,0.5952304601669312,-0.08110438287258148,-9.462310791015625
1749451230.0042598,-3.0111420611945316,-10.37195819910302,-175.81225961538462,4.44260730041307,0.7034360766410828,-0.34334853291511536,-9.403326034545898
1749451230.0155847,-3.0111420612027886,-9.933266310567095,-176.59181899290817,4.32130809947198,0.8983257412910461,-0.6289076805114746,-9.59024429321289
1749451230.0250037,-3.01114206121026,-9.53630495369812,-175.81225961538462,4.22306227384124,0.5392345786094666,-0.46351057291030884,-9.406515121459961
1749451230.036162,-3.0111420612170208,-9.177104514927407,-175.0326923076923,4.131522203136201,0.6805195808410645,-0.42365580797195435,-9.62850570678711
1749451230.0455198,-3.0111420612231385,-8.852072989867247,-182.82836538461538,4.046230187003337,0.8692318201065063,-0.6135636568069458,-9.518506050109863
1749451230.0554943,-3.011142061228674,-8.626452541499022,-192.18316514675433,3.966759765361985,0.7819498777389526,-0.5446149706840515,-9.727743148803711
1749451230.0653265,-3.0111420612336834,-8.422294220677225,-191.40360576923075,3.892713586103938,1.320188045501709,-0.49599218368530273,-9.844717025756836
1749451230.0756977,-3.0111420612382163,-8.23755644419364,-187.5057692307692,3.775904283636949,0.9062966704368591,-0.9654809236526489,-9.570117950439453
1749451230.0879133,-3.011142061242318,-8.070391834283429,-178.15096153846153,3.737980096959477,1.116530418395996,-0.6318968534469604,-9.574901580810547
1749451230.0966134,-3.011142061246029,-8.26159113600738,-171.9144072165856,3.710273019549088,0.9692671298980713,-0.47805750370025635,-9.536640167236328
1749451230.1063488,-3.0111420612493873,-8.434604012556678,-179.71009615384614,3.6768284855144806,0.8138337135314941,-0.40512341260910034,-9.760623931884766
1749451230.1163838,-3.0111420612524262,-8.865127572168868,-182.82836538461538,3.550509294840479,0.8355544805526733,-0.6127665638923645,-10.053955078125
1749451230.1267664,-3.011142061255176,-9.254697611765623,-182.82836538461538,3.402450672100111,0.6189440488815308,-0.39934444427490234,-9.658395767211914
1749451230.1374748,-3.0111420612576643,-9.607209831742912,-179.71009615384614,3.264497769703174,1.094411015510559,-0.5314628481864929,-10.043991088867188
1749451230.1463795,-3.011142061259916,-9.926189354300508,-178.15096153846153,3.135960823137683,0.9076915979385376,-0.33278703689575195,-9.860260963439941
1749451230.1553264,-3.0111420612619533,-10.214825974663986,-184.3875,3.04760517500577,0.8255908489227295,-0.289345383644104,-9.904698371887207
1749451230.1719692,-3.0111420612637967,-10.202037539592098,-182.82836538461538,2.9867868524542764,0.7960983514785767,-0.13152062892913818,-9.698251724243164
1749451230.1776826,-3.0111420612654647,-10.190465603408573,-179.71009615384614,2.9336773729376575,0.5489989519119263,-0.0017934665083885193,-9.988792419433594
1749451230.1851223,-3.011142061266974,-10.179994446751577,-181.26922283906202,2.941052080562195,0.4664996862411499,0.0029891058802604675,-9.88636589050293
1749451230.1947525,-3.01114206126834,-9.896548051643588,-182.82836538461538,2.891064221429162,0.281374454498291,-0.15802401304244995,-9.90788745880127
1749451230.2048094,-3.011142061269576,-9.640064472753634,-179.71009615384614,2.8409305795119963,0.21262499690055847,0.11478164047002792,-9.719573974609375
1749451230.2156198,-3.0111420612706943,-9.407978874292816,-182.82836538461538,2.794218802229496,0.20505261421203613,-0.046430766582489014,-9.979425430297852
1749451230.2255683,-3.0111420612717064,-9.197970400276525,-184.3875,2.750695330695249,0.23912841081619263,0.25387465953826904,-10.075475692749023
1749451230.2373521,-3.011142061272622,-9.007938965964598,-179.71009615384614,2.710142547551584,0.10302448272705078,-0.14108575880527496,-10.029443740844727
1749451230.250634,-3.0111420612734507,-8.835984257013918,-181.26922283906202,2.610809521585825,0.16021603345870972,0.23494365811347961,-10.01091194152832
1749451230.2552044,-3.0111420612742004,-8.406416813407063,-184.3875,2.488434148949461,-0.022717200219631195,0.14726324379444122,-10.129081726074219
1749451230.2646632,-3.011142061274879,-7.880726982891282,-181.26922283906202,2.4042337983564286,0.031086694449186325,0.0512133352458477,-10.002740859985352
1749451230.27489,-3.011142061275493,-7.131073443557143,-182.82836538461538,2.3257805307779673,0.01275351271033287,0.20046932995319366,-10.02027702331543
1749451230.2844362,-3.0111420612760487,-6.452730638658575,-185.9466346153846,2.2232794512187466,0.21023371815681458,0.2283676266670227,-9.871220588684082
1749451230.2943394,-3.0111420612765514,-5.838915140146592,-184.3875,2.127774568339956,0.44956138730049133,0.05958282947540283,-9.49260139465332
1749451230.3044965,-3.011142061277006,-5.557458705963987,-184.3875,2.090937103204076,0.7259540557861328,-0.04862277954816818,-9.602201461791992
1749451230.3150187,-3.011142061277418,-5.302775793121662,-189.06489591598512,2.0566139740381915,0.6360815763473511,0.09943756461143494,-9.803866386413574
1749451230.32445,-3.0111420612777904,-5.2093045289551485,-189.06489591598512,1.99754430173866,0.33996087312698364,-0.04782567918300629,-9.634683609008789
1749451230.334566,-3.0111420612781274,-5.124724711499146,-185.9466346153846,1.9425064215630088,0.38081198930740356,0.22219014167785645,-9.650823593139648
1749451230.3443542,-3.0111420612784325,-5.0481905425790945,-185.9466346153846,1.9160093067409047,0.4003407955169678,0.23613931238651276,-9.68191146850586
1749451230.355432,-3.0111420612787083,-4.567981811113926,-185.9466346153846,1.891320748741388,0.43581151962280273,0.09047024697065353,-9.72037124633789
1749451230.3644052,-3.011142061278958,-4.133452897759897,-190.62403846153845,1.8435331421439156,0.3919713497161865,0.05998137593269348,-9.777562141418457
1749451230.3747506,-3.011142061279184,-3.7402585133834663,-195.3014423076923,1.796165240712048,0.20086786150932312,-0.030289599671959877,-9.706820487976074
1749451230.3844445,-3.011142061279388,-3.658436627068782,-192.96274038461536,1.752030428689401,0.24331316351890564,0.05460098385810852,-9.754446029663086
1749451230.3943424,-3.0111420612795734,-3.584398041305425,-189.8444632236774,1.6833345756014917,0.2680231034755707,0.13690102100372314,-9.810441970825195
1749451230.4048839,-3.011142061279741,-3.517402370235762,-192.18316514675433,1.6193275482449765,0.17416518926620483,0.1520458161830902,-9.804264068603516
1749451230.4144108,-3.0111420612798923,-3.3197933072021018,-192.18316514675433,1.559689311483073,0.14925599098205566,0.27738896012306213,-9.837343215942383
1749451230.4240973,-3.0111420612800295,-2.7300269214787107,-189.06489591598512,25.924249175370363,0.1771543025970459,0.2674252688884735,-9.85607624053955
1749451230.4341521,-3.0111420612801534,-2.127872325913357,-190.62403846153845,48.65174098572244,0.19648383557796478,0.21441848576068878,-9.788323402404785
1749451230.4441144,-3.0111420612802657,-1.5829976392665426,-193.74231562247644,69.8395934173918,0.18233540654182434,0.2528783082962036,-9.779953002929688
1749451230.4542668,-3.0111420612803674,-1.0899541146717988,-195.3014423076923,89.58127197962156,0.18074122071266174,0.34334853291511536,-9.782942771911621
1749451230.4640741,-3.0111420612804594,-0.6438113168831783,-193.74231562247644,107.97590901184459,0.17775212228298187,0.37025049328804016,-9.71678352355957
1749451230.4741514,-3.0111420612805424,-0.24010781792279484,-193.74231562247644,125.11502269645051,0.1372995674610138,0.38977932929992676,-9.707817077636719
1749451230.4840863,-3.0111420612806175,0.12519341719895527,-195.3014423076923,141.08388465524064,0.10043393075466156,0.3714461326599121,-9.695063591003418
1749451230.4941018,-3.0111420612806854,0.5242378790652674,-192.18317307692308,155.95166709525245,0.12354966998100281,0.37164539098739624,-9.667163848876953
1749451230.5040944,-3.011142061280747,0.8853232676329869,-195.3014423076923,169.80465114875483,0.1048179566860199,0.3616816997528076,-9.678921699523926
1749451230.514187,-3.011142061280803,1.2120604367877907,-190.62403846153845,182.7121017360153,0.06974578648805618,0.33497902750968933,-9.672744750976562
1749451230.5240858,-3.0111420612808537,1.507716758221227,-187.5057692307692,194.74093716771324,0.030289599671959877,0.3511202335357666,-9.674339294433594
1749451230.5341403,-3.0111420612808995,1.7752487951476301,-192.18317307692308,205.948746139216,0.03228233754634857,0.3152509331703186,-9.68430233001709
1749451230.5440717,-3.0111420612809408,2.017331867936264,-198.4197115384615,216.3920257139329,0.04264456406235695,0.2712114751338959,-9.691276550292969
1749451230.5541143,-3.011142061280978,2.2363868073150153,-195.3014423076923,226.12250071910154,0.053604621440172195,0.27838534116744995,-9.759029388427734
1749451230.564082,-3.011142061281012,2.434604162677671,-192.18317307692308,235.18927575252016,0.024909209460020065,0.2829686403274536,-9.779953002929688
1749451230.5741029,-3.0111420612810424,2.613966107577858,-198.4197115384615,243.63628909774414,-0.0013949153944849968,0.28874754905700684,-9.774971008300781
1749451230.5841587,-3.01114206128107,2.7762662614645786,-199.97884615384615,251.50675274242315,0.020126640796661377,0.27519696950912476,-9.799083709716797
1749451230.5941198,-3.011142061281095,3.1970989322876497,-195.3014423076923,258.79930847360805,0.03626780956983566,0.24690008163452148,-9.815025329589844
1749451230.6040819,-3.0111420612811175,3.5778999281351958,-198.4197115384615,265.5941118453274,0.04882204905152321,0.20126640796661377,-9.825587272644043
1749451230.6142473,-3.011142061281138,4.059462215429648,-198.4197115384615,271.9034348314386,0.03786199912428856,0.2251792550086975,-9.848104476928711
1749451230.6240673,-3.0111420612811566,4.495215927720315,-192.18317307692308,277.77882193181654,0.04682931303977966,0.2144184708595276,-9.848503112792969
1749451230.63433,-3.0111420612811735,4.889518602130103,-195.3014423076923,283.2531853170817,0.09624917805194855,0.2241828739643097,-9.825586318969727
1749451230.6440718,-3.0111420612811886,5.520283178331027,-196.86056899290816,288.3034704553808,0.13710027933120728,0.23773348331451416,-9.811836242675781
1749451230.6540947,-3.0111420612812023,6.091046323437819,-190.62403846153845,293.009049096229,0.17894776165485382,0.2227879762649536,-9.790514945983887
1749451230.66434,-3.0111420612812148,6.607515668901547,-192.18317307692308,297.3934491328305,0.21023371815681458,0.20604898035526276,-9.757635116577148
1749451230.6741354,-3.011142061281226,7.211840864640803,-198.4197115384615,301.4640319064443,0.2674252688884735,0.23016110062599182,-9.719972610473633
1749451230.6840556,-3.011142061281236,7.621694716825388,-195.3014423076923,305.2813985139439,0.3094720244407654,0.25546884536743164,-9.678722381591797
1749451230.6941094,-3.0111420612812454,7.992561253300785,-195.3014423076923,308.8382113038425,0.31963497400283813,0.2558673918247223,-9.650823593139648
1749451230.7041063,-3.011142061281254,8.328149139431746,-195.3014423076923,312.15118997079,0.33916378021240234,0.2500884532928467,-9.622925758361816
1749451230.7160597,-3.0111420612812614,8.768799210543538,-189.06489591598512,315.2132594636456,0.37164539098739624,0.21162864565849304,-9.584067344665527
1749451230.7248425,-3.011142061281268,9.030547521559686,-187.5057692307692,318.0911101205761,0.4023335576057434,0.17277027666568756,-9.567926406860352
1749451230.7345824,-3.0111420612812743,9.404382001377945,-189.06489591598512,320.7537362430189,0.40492409467697144,0.12554241716861725,-9.565336227416992
1749451230.7448945,-3.01114206128128,9.742655505472861,-187.5057692307692,323.2286401574062,0.40173572301864624,0.11179253458976746,-9.564140319824219
1749451230.7573211,-3.011142061281285,10.048750768885382,-189.06489591598512,325.533379166926,0.4055219292640686,0.10960052162408829,-9.550788879394531
1749451230.7647326,-3.0111420612812894,10.325728744249634,-190.62403846153845,327.6483487021194,0.3991451859474182,0.09007170051336288,-9.550390243530273
1749451230.7744725,-3.0111420612812934,10.576359211319259,-184.3875,329.6189612909766,0.39555823802948,0.06396684795618057,-9.55955696105957
1749451230.7842965,-3.0111420612812974,11.077118387692865,-183.60792476213896,331.4335355258381,0.3810112476348877,0.03387652710080147,-9.596620559692383
1749451230.7947848,-3.011142061281301,11.530242886486917,-182.82836538461538,333.12425625307884,0.38220691680908203,0.024909211322665215,-9.624719619750977
1749451230.805867,-3.011142061281304,12.07724890915331,-182.82836538461538,334.6995770763349,0.3608846366405487,0.003786202520132065,-9.650026321411133
1749451230.8144805,-3.0111420612813067,12.572221026595074,-183.60792476213896,336.16737459972256,0.3487289249897003,-0.004583296366035938,-9.690479278564453
1749451230.8243213,-3.0111420612813093,13.020108959986624,-185.9466346153846,337.53498781085887,0.32939937710762024,-0.002590558025985956,-9.729935646057129
1749451230.834327,-3.0111420612813116,13.493884066893855,-188.28533653846154,338.8015676370168,0.32282334566116333,-0.012952787801623344,-9.789119720458984
1749451230.8444037,-3.011142061281314,13.854098875492044,-188.28533653846154,339.9893843827508,0.3013018071651459,-0.003985473420470953,-9.821002960205078
1749451230.856769,-3.0111420612813156,14.18004827852899,-185.1670673076923,341.09612686459224,0.2997075915336609,-0.009764410555362701,-9.856473922729492
1749451230.8649676,-3.0111420612813173,14.543484248267038,-183.60792476213896,342.12732879495024,0.2993090748786926,0.00817022006958723,-9.873212814331055
1749451230.8746395,-3.0111420612813187,14.872348399741755,-184.3875,343.0804590370992,0.32202625274658203,0.011358599178493023,-9.883377075195312
1749451230.884705,-3.01114206128132,15.443899287395801,-184.3875,343.93205631960495,0.3046894669532776,0.023912841454148293,-9.882978439331055
1749451230.8959508,-3.0111420612813213,16.0980663979224,-182.82836538461538,344.7019735384924,0.32122915983200073,0.04045255482196808,-9.88018798828125
1749451230.9045393,-3.0111420612813227,16.690005913103175,-182.82836538461538,345.4193401665553,0.3469354510307312,0.07014434039592743,-9.876202583312988
1749451230.9146972,-3.0111420612813236,17.225637228089937,-182.82836538461538,346.087743036934,0.33677250146865845,0.07412981241941452,-9.857471466064453
1749451230.9242342,-3.0111420612813244,17.778809134264527,-184.3875,346.7074518709498,0.34075796604156494,0.09684701263904572,-9.824989318847656
1749451230.9346418,-3.0111420612813253,18.279360606026877,-187.5057692307692,347.2848625661946,0.33836668729782104,0.10043393075466156,-9.794898986816406
1749451230.9453864,-3.011142061281326,18.73229715809461,-187.5057692307692,347.8210383250838,0.35151875019073486,0.09465499967336655,-9.80286979675293
1749451230.9543073,-3.011142061281327,19.142148155988405,-185.9466346153846,348.31877338244146,0.33996087312698364,0.08508986234664917,-9.770387649536133
1749451230.9642835,-3.0111420612813276,19.5130121096872,-185.9466346153846,348.78253560389345,0.327406644821167,0.08349566161632538,-9.777562141418457
1749451230.9742384,-3.011142061281328,19.848597658727982,-187.5057692307692,349.21464380054704,0.29293230175971985,0.07612254470586777,-9.785135269165039
1749451230.9863145,-3.0111420612813284,20.15226065860116,-184.3875,349.6172585133855,0.2761933207511902,0.08728186786174774,-9.793304443359375
1749451230.995019,-3.011142061281329,20.153067826377555,-184.3875,349.97361475457177,0.26343977451324463,0.07452835142612457,-9.78632926940918
1749451231.0043752,-3.0111420612813293,20.153798212382203,-185.9466346153846,350.32989792384535,0.23853057622909546,0.0641661286354065,-9.809844017028809
1749451231.0145237,-3.0111420612813298,20.15445912047515,-185.9466346153846,350.6772542479585,0.2120271921157837,0.054401714354753494,-9.83355712890625
1749451231.025322,-3.01114206128133,20.15505715973732,-182.82836538461538,350.9347125011207,0.19190055131912231,0.04503585025668144,-9.8636474609375
1749451231.0345736,-3.0111420612813307,20.429568223489255,-185.9466346153846,351.1505127322793,0.18133902549743652,0.041648197919130325,-9.89553165435791
1749451231.044415,-3.011142061281331,20.677966443721196,-190.62403846153845,351.3715989553472,0.15961821377277374,0.0422460176050663,-9.903902053833008
1749451231.0543773,-3.011142061281331,20.902735802635465,-196.86056899290816,351.57759496954543,0.1412850320339203,0.04782567918300629,-9.946147918701172
1749451231.0645363,-3.011142061281331,21.243108950285162,-195.3014423076923,351.7695307549449,0.13211844861507416,0.059782106429338455,-9.945350646972656
1749451231.0762663,-3.011142061281331,21.551104128823145,-192.18317307692308,351.9483659904727,0.1309228092432022,0.07652109116315842,-9.946346282958984
1749451231.0845523,-3.011142061281331,21.829801290034794,-192.18317307692308,352.1149948523065,0.13152062892913818,0.09824191778898239,-9.94036865234375
1749451231.0953517,-3.011142061281331,22.081987405532228,-185.9466346153846,352.2412873147201,0.12075984477996826,0.12414749711751938,-9.936981201171875
1749451231.1044533,-3.011142061281331,22.31018433647042,-185.9466346153846,352.3589597029833,0.14068721234798431,0.13769811391830444,-9.931401252746582
1749451231.1142914,-3.011142061281331,22.516674052158752,-187.5057692307692,352.45579337214195,0.15304218232631683,0.17595866322517395,-9.905296325683594
1749451231.1260571,-3.011142061281331,22.703521449754106,-185.9466346153846,352.50536446674147,0.1853245049715042,0.19209983944892883,-9.884173393249512
1749451231.134798,-3.011142061281331,22.872595003232437,-185.9466346153846,352.5515520932939,0.2024620622396469,0.20764316618442535,-9.848901748657227
1749451231.1444144,-3.011142061281331,23.025585448128528,-185.9466346153846,352.63524039610553,0.2186032235622406,0.2315560281276703,-9.809246063232422
1749451231.1544404,-3.011142061281331,23.16402268889134,-187.5057692307692,352.6533674055965,0.2544724941253662,0.24929137527942657,-9.754646301269531
1749451231.1649086,-3.011142061281331,23.289291097928498,-192.18317307692308,352.66125484302876,0.2680230736732483,0.251284122467041,-9.729337692260742
1749451231.184267,-3.011142061281331,23.402643359330376,-196.0810096153846,352.6776062401263,0.28874754905700684,0.2690194547176361,-9.616548538208008
1749451231.1947477,-3.011142061281331,23.505212995710995,-195.3014423076923,352.7274501367419,0.3102691173553467,0.26622962951660156,-9.571313858032227
1749451231.2049713,-3.011142061281331,23.59802570343416,-192.96274038461536,352.7631361431748,0.3086749315261841,0.26762455701828003,-9.548995971679688
1749451231.218628,-3.011142061281331,23.682009609577104,-189.8444632236774,352.79638640628855,0.3162473142147064,0.24271532893180847,-9.52528190612793
1749451231.2242715,-3.011142061281331,23.758004553201253,-190.62403846153845,352.8273671773987,0.31086695194244385,0.22737127542495728,-9.514520645141602
1749451231.2344227,-3.011142061281331,23.82677048374285,-190.62403846153845,352.83641247926687,0.3070807456970215,0.2186032235622406,-9.51292610168457
1749451231.2442589,-3.011142061281331,23.88899506050731,-188.28533653846154,352.84484039533606,0.30688145756721497,0.2120271921157837,-9.509937286376953
1749451231.2549696,-3.011142061281331,23.94530052926228,-185.1670673076923,352.8526930651866,0.3013017773628235,0.19548746943473816,-9.525480270385742
1749451231.266159,-3.011142061281331,23.996249944695307,-185.1670673076923,352.86696511150336,0.30289599299430847,0.19608528912067413,-9.549592971801758
1749451231.2748075,-3.011142061281331,24.042352800960725,-187.5057692307692,352.9024466498784,0.28655552864074707,0.1845274269580841,-9.576096534729004
1749451231.2848263,-3.011142061281331,24.08407012662118,-187.5057692307692,352.93550640087267,0.2714107632637024,0.1893099844455719,-9.614356994628906
1749451231.2946126,-3.011142061281331,24.121819094933286,-185.9466346153846,352.9663096632411,0.2624434232711792,0.1795455813407898,-9.638469696044922
1749451231.3052661,-3.011142061281331,24.15597719558016,-187.5057692307692,352.9466712898666,0.2494906336069107,0.18392959237098694,-9.661584854125977
1749451231.3151536,-3.011142061281331,24.186886009568273,-189.06489591598512,352.92590203254923,0.25945430994033813,0.18970853090286255,-9.683107376098633
1749451231.3246686,-3.011142061281331,24.214854625037503,-189.06489591598512,352.8989884611555,0.2552695870399475,0.18014338612556458,-9.696855545043945
1749451231.3344686,-3.011142061281331,24.240162728142543,-187.5057692307692,352.8814737885643,0.25865721702575684,0.1885128915309906,-9.713396072387695
1749451231.3447545,-3.011142061281331,24.263063399914444,-185.9466346153846,352.8676258758108,0.2777875065803528,0.2144184708595276,-9.717780113220215
1749451231.3549585,-3.011142061281331,24.283785647070925,-187.5057692307692,352.8181534040654,0.2965192198753357,0.22398361563682556,-9.716583251953125
1749451231.3642776,-3.011142061281331,24.30253669208355,-189.06489591598512,352.7720576688782,0.327406644821167,0.25786012411117554,-9.705224990844727
1749451231.3745248,-3.011142061281331,24.319504045402446,-187.5057692307692,352.69263258324366,0.3379681706428528,0.2682223618030548,-9.697454452514648
1749451231.3844306,-3.011142061281331,24.334857380560805,-185.9466346153846,352.6004280089069,0.3594897389411926,0.2833671569824219,-9.67573356628418
1749451231.3950934,-3.011142061281331,24.348750230910206,-184.3875,352.5145168447436,0.3682577610015869,0.2740013003349304,-9.657998085021973
1749451231.4041753,-3.011142061281331,24.361321524954143,-184.3875,352.434469534933,0.38977932929992676,0.28057733178138733,-9.639863967895508
1749451231.4141245,-3.011142061281331,24.37269697563306,-189.06489591598512,352.41456208793846,0.395956814289093,0.26702672243118286,-9.625316619873047
1749451231.4241242,-3.011142061281331,24.38299033745374,-189.06489591598512,352.3960134209214,0.38400036096572876,0.25546884536743164,-9.606386184692383
1749451231.434126,-3.011142061281331,24.392304544034396,-190.62403846153845,352.40204927462395,0.3812105357646942,0.23853059113025665,-9.614356994628906
1749451231.4440866,-3.011142061281331,24.40073273744083,-192.18317307692308,352.4222383993059,0.36367446184158325,0.1998714953660965,-9.632889747619629
1749451231.454171,-3.011142061281331,24.40835919960711,-190.62403846153845,352.44104951813966,0.3698519468307495,0.17655646800994873,-9.647834777832031
1749451231.4640973,-3.011142061281331,24.415260195154893,-189.06489591598512,352.45857668671937,0.35311293601989746,0.15742620825767517,-9.655208587646484
1749451231.4741542,-3.011142061281331,24.42150473403966,-184.3875,352.45238258173174,0.3371710479259491,0.15164726972579956,-9.655606269836426
1749451231.48411,-3.011142061281331,24.427155261650263,-181.26922283906202,352.4210512165482,0.3030952513217926,0.11498090624809265,-9.696855545043945
1749451231.4941201,-3.011142061281331,24.4322682832628,-182.82836538461538,352.39185836926157,0.2933308482170105,0.0958506390452385,-9.726348876953125
1749451231.5041025,-3.011142061281331,24.436894929093402,-189.06489591598512,352.3646580756354,0.24769717454910278,0.07034360617399216,-9.767598152160645
1749451231.5141284,-3.011142061281331,24.441081465600373,-192.18317307692308,352.32941555429863,0.23135673999786377,0.061974115669727325,-9.795098304748535
1749451231.5240788,-3.011142061281331,24.444869758148783,-185.9466346153846,352.2816040385068,0.21342210471630096,0.03885836899280548,-9.851492881774902
1749451231.5341532,-3.011142061281331,24.44829768966412,-182.82836538461538,352.2370558909596,0.19289691746234894,0.03088741935789585,-9.887959480285645
1749451231.5440788,-3.011142061281331,24.45139953946153,-182.82836538461538,352.18073381283244,0.17496228218078613,0.016938261687755585,-9.928810119628906
1749451231.5541446,-3.011142061281331,24.454206326038992,-181.26922283906202,352.11640249418565,0.174763023853302,0.029691778123378754,-9.960296630859375
1749451231.5640774,-3.011142061281331,24.45674611726228,-184.3875,352.05646210058956,0.17815065383911133,0.02949250489473343,-9.990386962890625
1749451231.5741491,-3.011142061281331,24.459044311043627,-184.3875,351.9978096482425,0.17356738448143005,0.03925691545009613,-9.986600875854492
1749451231.584077,-3.011142061281331,24.461123889320845,-185.1670673076923,351.94012497228465,0.1771543025970459,0.05101406201720238,-9.992777824401855
1749451231.5942674,-3.011142061281331,24.463005647876706,-185.9466346153846,351.88637755572137,0.1877157986164093,0.05340534448623657,-10.001147270202637
1749451231.6040773,-3.011142061281331,24.46470840429677,-182.82836538461538,351.82910606795105,0.20505261421203613,0.06914796680212021,-9.969064712524414
1749451231.6140926,-3.011142061281331,24.466249186145237,-180.48966346153844,351.7585792258372,0.21561411023139954,0.07353198528289795,-9.947343826293945
1749451231.624062,-3.011142061281331,24.467643401240593,-183.60792476213896,351.66716590286023,0.24072259664535522,0.09385790675878525,-9.908683776855469
1749451231.634109,-3.011142061281331,24.46890499173379,-185.9466346153846,351.5804784134195,0.25546884536743164,0.11099543422460556,-9.853684425354004
1749451231.6440694,-3.011142061281331,24.47004657352976,-184.3875,351.4997077663034,0.2608492374420166,0.10979979485273361,-9.824989318847656
1749451231.6540833,-3.011142061281331,24.471079562446462,-183.60792476213896,351.4244501082764,0.26702672243118286,0.11179253458976746,-9.792707443237305
1749451231.664078,-3.011142061281331,24.472014288373067,-184.3875,351.3573494425649,0.2590557932853699,0.11258962750434875,-9.764410018920898
1749451231.6741037,-3.011142061281331,24.472860098568837,-184.3875,351.2948287232962,0.25706303119659424,0.09445572644472122,-9.755243301391602
1749451231.6840594,-3.011142061281331,24.47362545113573,-185.9466346153846,351.23657534687385,0.2453058958053589,0.08150293678045273,-9.754646301269531
1749451231.69411,-3.011142061281331,24.474317999599418,-190.62403846153845,351.1737627281975,0.21680974960327148,0.0715392455458641,-9.73571491241455
1749451231.70428,-3.011142061281331,24.474944669444533,-185.9466346153846,351.11343712361884,0.20305988192558289,0.07253561913967133,-9.73392105102539
1749451231.7143526,-3.011142061281331,24.47551172736953,-182.82836538461538,351.0481609040684,0.2022627890110016,0.05101406201720238,-9.743885040283203
1749451231.724291,-3.011142061281331,24.476024843953656,-185.9466346153846,350.98279090892436,0.19050563871860504,0.04264456778764725,-9.762218475341797
1749451231.7342412,-3.011142061281331,24.476489150362756,-187.5057692307692,350.92643192827023,0.1829332411289215,0.03925691545009613,-9.7763671875
1749451231.7440763,-3.011142061281331,24.47690928966092,-185.9466346153846,350.8693705271435,0.1600167602300644,0.027101222425699234,-9.811637878417969
1749451231.7547052,-3.011142061281331,24.477289463241128,-181.26922283906202,350.7996419922452,0.15324145555496216,0.031485240906476974,-9.819011688232422
1749451231.764374,-3.011142061281331,24.47763347283918,-182.82836538461538,350.73467276862914,0.14367632567882538,0.03228233754634857,-9.834354400634766
1749451231.7742743,-3.011142061281331,24.47794475855106,-187.5057692307692,350.6506812559249,0.1462668776512146,0.05380389094352722,-9.84332275390625
1749451231.784204,-3.011142061281331,24.47822643323389,-189.06489591598512,350.5398932857589,0.13670174777507782,0.07871310412883759,-9.854880332946777
1749451231.7943842,-3.011142061281331,24.47848131363449,-187.5057692307692,350.43336112662485,0.14327776432037354,0.09246298670768738,-9.861656188964844
1749451231.8050008,-3.011142061281331,24.47871194855687,-185.9466346153846,350.3240070630114,0.17416518926620483,0.11916565150022507,-9.834753036499023
1749451231.8143802,-3.011142061281331,24.478920644350257,-187.5057692307692,350.22211694553516,0.20086787641048431,0.15802401304244995,-9.812234878540039
1749451231.8241787,-3.011142061281331,24.479109487972583,-192.18317307692308,350.1271813236089,0.22119377553462982,0.1829332411289215,-9.795894622802734
1749451231.834136,-3.011142061281331,24.47928036786007,-189.06489591598512,350.06187275328864,0.26443618535995483,0.20983518660068512,-9.762018203735352
1749451231.8440824,-3.011142061281331,24.479434992811594,-184.3875,350.0010218101938,0.27260637283325195,0.21920102834701538,-9.717779159545898
1749451231.8540943,-3.011142061281331,24.479574909076668,-184.3875,349.9443242396089,0.2989104986190796,0.24430954456329346,-9.696657180786133
1749451231.8640702,-3.011142061281331,24.479701515817943,-184.3875,349.8493238619856,0.32621100544929504,0.2518819272518158,-9.655208587646484
1749451231.874115,-3.011142061281331,24.479816079102836,-182.82836538461538,349.7608077216936,0.3337833881378174,0.2642368674278259,-9.602002143859863
1749451231.8840828,-3.011142061281331,24.47991974456419,-182.82836538461538,349.6783332380313,0.35331225395202637,0.2692187428474426,-9.569321632385254
1749451231.8940878,-3.011142061281331,24.480013548856622,-185.9466346153846,349.6143131149766,0.35889190435409546,0.2566644847393036,-9.530662536621094
1749451231.9042864,-3.011142061281331,24.480098430023055,-187.5057692307692,349.55466267636154,0.3650693893432617,0.23872986435890198,-9.530263900756836
1749451231.91411,-3.011142061281331,24.480175236875155,-185.9466346153846,349.5091185459558,0.37025052309036255,0.2437117099761963,-9.510734558105469
1749451231.9241266,-3.011142061281331,24.480244737481442,-193.7423076923077,349.4696068131916,0.369652658700943,0.2217915952205658,-9.51471996307373
1749451231.9341784,-3.011142061281331,24.480307626847978,-196.86056899290816,349.4298681586903,0.35151875019073486,0.20425552129745483,-9.526078224182129
1749451231.9442575,-3.011142061281331,24.48036453386843,-187.5057692307692,349.38280698446584,0.34494274854660034,0.19369401037693024,-9.542020797729492
1749451231.9541183,-3.011142061281331,24.480416027613,-187.5057692307692,349.33895796402845,0.34075799584388733,0.18970853090286255,-9.574502944946289
1749451231.9640892,-3.011142061281331,24.480462623019136,-187.5057692307692,349.298101852276,0.3240189850330353,0.17974485456943512,-9.597816467285156
1749451231.9741068,-3.011142061281331,24.4805047860409,-186.72620192307693,349.2600343686496,0.32362043857574463,0.16639351844787598,-9.640262603759766
1749451231.9840713,-3.011142061281331,24.48054293830851,-185.1670673076923,349.21174009933515,0.2949250340461731,0.1592196524143219,-9.690080642700195
1749451231.9941087,-3.011142061281331,24.48057746134464,-185.1670673076923,349.1672107838132,0.28814974427223206,0.16360369324684143,-9.711801528930664
1749451232.004066,-3.011142061281331,24.48060870037965,-188.28533653846154,349.1257208104209,0.27021509408950806,0.17376664280891418,-9.75564193725586
1749451232.0141294,-3.011142061281331,24.480636967803896,-189.8444632236774,349.0819500682284,0.27519696950912476,0.17775210738182068,-9.769591331481934
1749451232.0240974,-3.011142061281331,24.480662546291615,-187.50576130060048,349.0411668918503,0.28057733178138733,0.18592232465744019,-9.78931999206543
1749451232.0346537,-3.011142061281331,24.480685691627684,-185.9466346153846,349.0082800264675,0.30269670486450195,0.21182793378829956,-9.784137725830078
1749451232.0445366,-3.011142061281331,24.480706635265467,-184.3875,348.98931597176374,0.3102691173553467,0.22238942980766296,-9.786928176879883
1749451232.054209,-3.011142061281331,24.480725586641338,-182.04879807692305,348.97164630593016,0.3290008306503296,0.25487104058265686,-9.785135269165039
1749451232.0640779,-3.011142061281331,24.480742735269057,-182.04879807692305,348.9551826806377,0.34872889518737793,0.27420058846473694,-9.764608383178711
1749451232.0741723,-3.011142061281331,24.480758252634903,-182.82836538461538,348.9229119152983,0.3704497516155243,0.27519693970680237,-9.746673583984375
1749451232.0840926,-3.011142061281331,24.480772293912533,-184.3875,348.8789325475505,0.36128318309783936,0.2736027240753174,-9.708015441894531
1749451232.0941012,-3.011142061281331,24.480784999514725,-187.5057692307692,348.82068803489085,0.3590911626815796,0.27260640263557434,-9.71319580078125
1749451232.1044102,-3.011142061281331,24.4807964964975,-185.9466346153846,348.71335504828437,0.3543086051940918,0.26184558868408203,-9.697653770446777
1749451232.1159089,-3.011142061281331,24.480806899830686,-184.3875,348.6133480594901,0.3373703360557556,0.23295092582702637,-9.691675186157227
1749451232.1242802,-3.011142061281331,24.480816313547614,-184.3875,348.520167033564,0.3355768620967865,0.21481701731681824,-9.690479278564453
1749451232.1343157,-3.011142061281331,24.480824831785455,-181.26922283906202,348.4637759497557,0.31744295358657837,0.18791508674621582,-9.702237129211426
1749451232.1443074,-3.011142061281331,24.480832539726585,-187.5057692307692,348.4269080408487,0.28655552864074707,0.16958189010620117,-9.725353240966797
1749451232.1552143,-3.011142061281331,24.480839514450416,-190.62403846153845,348.39255654584696,0.2624434232711792,0.15005306899547577,-9.735116958618164
1749451232.1659536,-3.011142061281331,24.480845825704186,-179.71009615384614,348.34487549781966,0.24889281392097473,0.12733587622642517,-9.777761459350586
1749451232.1840851,-3.011142061281331,24.480851536600436,-184.3875,348.30753305436576,0.19030636548995972,0.08768041431903839,-9.854681015014648
1749451232.1941028,-3.011142061281331,24.480856704248126,-187.5057692307692,348.2727394141055,0.16440078616142273,0.06695595383644104,-9.893539428710938
1749451232.2040699,-3.011142061281331,24.48086138032373,-196.86056899290816,348.2403206088376,0.15005308389663696,0.061774834990501404,-9.939373016357422
1749451232.214155,-3.011142061281331,24.48086561158801,-190.62403846153845,348.21011454453566,0.13710027933120728,0.05998137593269348,-9.975440979003906
1749451232.2240636,-3.011142061281331,24.480869440353604,-187.5057692307692,348.18197019087825,0.13092279434204102,0.06516249477863312,-10.00413703918457
1749451232.2343621,-3.011142061281331,24.48087290490817,-184.3875,348.14600873895137,0.11757146567106247,0.07831455767154694,-10.024662017822266
1749451232.2443013,-3.011142061281331,24.480876039897254,-184.3875,348.0787118851109,0.11697365343570709,0.07831455022096634,-10.02824878692627
1749451232.2545505,-3.011142061281331,24.480878876670744,-182.82836538461538,348.01174998797086,0.12374895811080933,0.08389421552419662,-10.020477294921875
1749451232.264314,-3.011142061281331,24.480881443596378,-178.15096153846153,347.9196724788552,0.15403854846954346,0.1121910810470581,-10.018085479736328
1749451232.2742991,-3.011142061281331,24.48088376634341,-182.82836538461538,347.8263159163243,0.17296954989433289,0.11677437275648117,-9.999552726745605
1749451232.2842476,-3.011142061281331,24.480885868139314,-185.9466346153846,347.7393313927581,0.19867587089538574,0.13869448006153107,-9.970259666442871
1749451232.2943375,-3.011142061281331,24.480887770002045,-185.9466346153846,347.6582839855388,0.2114293873310089,0.1438755989074707,-9.910079956054688
1749451232.3044183,-3.011142061281331,24.480889490950233,-185.9466346153846,347.59033224840033,0.23474439978599548,0.17197318375110626,-9.862651824951172
1749451232.314753,-3.011142061281331,24.48089104819336,-185.9466346153846,347.5270185474644,0.25865721702575684,0.17775210738182068,-9.82419204711914
1749451232.3247733,-3.011142061281331,24.480892457303856,-184.3875,347.4680263142264,0.2610485255718231,0.16400223970413208,-9.788722038269043
1749451232.3354867,-3.011142061281331,24.480893732372827,-181.26922283906202,347.37110695088234,0.26603037118911743,0.1739659160375595,-9.748069763183594
1749451232.344795,-3.011142061281331,24.48089488615096,-179.71009615384614,347.27682521336925,0.2698165476322174,0.15822330117225647,-9.713794708251953
1749451232.3555417,-3.011142061281331,24.48089593017604,-181.26922283906202,347.1856939026403,0.2680231034755707,0.16101312637329102,-9.691475868225098
1749451232.3647485,-3.011142061281331,24.480896874888312,-179.71009615384614,347.10406750649724,0.26124778389930725,0.13351336121559143,-9.660189628601074
1749451232.3746269,-3.011142061281331,24.480897729734906,-182.04879807692305,347.0319901000711,0.26443618535995483,0.11019834876060486,-9.643451690673828
1749451232.3844237,-3.011142061281331,24.48089850326428,-185.9466346153846,346.96541637029213,0.2486935555934906,0.10362230241298676,-9.653812408447266
1749451232.3945444,-3.011142061281331,24.480899203211738,-185.1670673076923,346.9033866210184,0.24610298871994019,0.08110438287258148,-9.667762756347656
1749451232.4048705,-3.011142061281331,24.480899836576747,-183.60792476213896,346.84559070350355,0.2439109832048416,0.07213707268238068,-9.693070411682129
1749451232.4151015,-3.011142061281331,24.480900409692957,-185.9466346153846,346.79173963816,0.2299618124961853,0.07114069908857346,-9.696258544921875
1749451232.4243925,-3.011142061281331,24.480900928291533,-187.5057692307692,346.74156416966105,0.23115745186805725,0.05778936669230461,-9.713396072387695
1749451232.4345684,-3.011142061281331,24.480901397558462,-186.72620192307693,346.71553906786306,0.2112300992012024,0.041249655187129974,-9.734319686889648
1749451232.4443874,-3.011142061281331,24.48090182218641,-185.1670673076923,346.69129030570554,0.20983517169952393,0.055796630680561066,-9.728739738464355
1749451232.455174,-3.011142061281331,24.480902206421657,-186.72620192307693,346.66869663937763,0.20286059379577637,0.061774834990501404,-9.742091178894043
1749451232.4647443,-3.011142061281331,24.480902554106557,-190.62403846153845,346.6476451005477,0.2194003164768219,0.06715522706508636,-9.754047393798828
1749451232.4747248,-3.011142061281331,24.48090286871796,-192.18317307692308,346.6262576802213,0.22697269916534424,0.09983611106872559,-9.731330871582031
1749451232.4844146,-3.011142061281331,24.480903153401975,-187.5057692307692,346.5953169054428,0.25228047370910645,0.12693732976913452,-9.717580795288086
1749451232.4944875,-3.011142061281331,24.480903411005446,-182.82836538461538,346.55911292780763,0.2771896719932556,0.14427414536476135,-9.710407257080078
1749451232.5051665,-3.011142061281331,24.480903644104405,-182.82836538461538,346.5176701462217,0.3017003536224365,0.17695501446723938,-9.690679550170898
1749451232.514538,-3.011142061281331,24.480903855029844,-185.9466346153846,346.47905603582836,0.3282037377357483,0.19608530402183533,-9.669754981994629
1749451232.5242946,-3.011142061281331,24.48090404589102,-189.06489591598512,346.43605825905655,0.3477325737476349,0.20425552129745483,-9.636077880859375
1749451232.5343962,-3.011142061281331,24.48090421859654,-189.06489591598512,346.3959952894537,0.36845701932907104,0.2088388055562973,-9.600407600402832
1749451232.5451486,-3.011142061281331,24.48090437487346,-179.71009615384614,346.3586668121718,0.37184464931488037,0.21481701731681824,-9.581277847290039
1749451232.555272,-3.011142061281331,24.48090451628455,-175.0326923076923,346.32388618482446,0.3857938349246979,0.21262502670288086,-9.558161735534668
1749451232.5643172,-3.011142061281331,24.48090464424392,-184.3875,346.2914795042749,0.37244248390197754,0.20086786150932312,-9.524285316467285
1749451232.57438,-3.011142061281331,24.48090476003117,-187.5057692307692,346.26898204127536,0.37842071056365967,0.1885128915309906,-9.521295547485352
1749451232.584254,-3.011142061281331,24.480904864804163,-187.5057692307692,346.2480201394293,0.3877865672111511,0.19807803630828857,-9.516115188598633
1749451232.5949957,-3.011142061281331,24.480904959610633,-187.5057692307692,346.2284889892274,0.3728410303592682,0.1592196822166443,-9.512527465820312
1749451232.605318,-3.011142061281331,24.480905045398647,-184.3875,346.2102909349187,0.365866482257843,0.15543346107006073,-9.512129783630371
1749451232.614433,-3.011142061281331,24.48090512302608,-179.71009615384614,346.20417644018136,0.341156542301178,0.14487196505069733,-9.533451080322266
1749451232.624271,-3.011142061281331,24.480905193269212,-179.71009615384614,346.19847928941704,0.33198994398117065,0.14427414536476135,-9.55098819732666
1749451232.6352236,-3.011142061281331,24.48090525683047,-182.82836538461538,346.15707889247426,0.3088741898536682,0.10740850865840912,-9.586458206176758
1749451232.6450033,-3.011142061281331,24.48090531434547,-185.9466346153846,346.1174077329974,0.2933308482170105,0.1064121425151825,-9.637870788574219
1749451232.6545067,-3.011142061281331,24.480905366389358,-184.3875,346.0815408636656,0.26603034138679504,0.08708259463310242,-9.673341751098633
1749451232.664621,-3.011142061281331,24.480905413482578,-184.3875,346.03630096503935,0.25865721702575684,0.09445571899414062,-9.709809303283691
1749451232.6743488,-3.011142061281331,24.480905456096057,-189.06489591598512,345.992778493452,0.22298724949359894,0.0836949422955513,-9.739899635314941
1749451232.684378,-3.011142061281331,24.480905494655932,-187.5057692307692,345.952226642004,0.21740758419036865,0.07751745730638504,-9.790117263793945
1749451232.6948705,-3.011142061281331,24.4809055295478,-184.3875,345.90662689467706,0.18552379310131073,0.06476394832134247,-9.832362174987793
1749451232.704332,-3.011142061281331,24.480905561120586,-182.82836538461538,345.86413955165114,0.1924983561038971,0.0836949348449707,-9.879789352416992
1749451232.7144089,-3.011142061281331,24.48090558969001,-181.26922283906202,345.8181424523932,0.18911072611808777,0.09903901815414429,-9.890748977661133
1749451232.7242932,-3.011142061281331,24.480905615541772,-182.82836538461538,345.7713413914473,0.19309619069099426,0.11239035427570343,-9.936383247375488
1749451232.735896,-3.011142061281331,24.480905638934388,-185.9466346153846,345.70946195172564,0.20007076859474182,0.1349082738161087,-9.910078048706055
1749451232.7442374,-3.011142061281331,24.480905660101783,-190.62403846153845,345.6209221211012,0.2162119448184967,0.15722692012786865,-9.93419075012207
1749451232.7546058,-3.011142061281331,24.48090567925563,-184.3875,345.5208135150176,0.22458143532276154,0.17336809635162354,-9.922832489013672
1749451232.7643025,-3.011142061281331,24.48090569658747,-178.15096153846153,345.4275378076759,0.242914617061615,0.1942918300628662,-9.899517059326172
1749451232.774403,-3.011142061281331,24.48090571227062,-180.48966346153844,345.3582406696086,0.24231678247451782,0.22537851333618164,-9.875604629516602
1749451232.7850173,-3.011142061281331,24.48090572646191,-185.1670673076923,345.3265733122955,0.26224416494369507,0.22657416760921478,-9.871021270751953
1749451232.7943814,-3.011142061281331,24.480905739303253,-186.72620192307693,345.2970674059746,0.27918240427970886,0.23115745186805725,-9.831764221191406
1749451232.8048892,-3.011142061281331,24.480905750923068,-185.9466346153846,345.2695754211142,0.26941800117492676,0.2381320297718048,-9.822198867797852
1749451232.8144145,-3.011142061281331,24.480905761437548,-185.9466346153846,345.21549690493026,0.2706136703491211,0.2323531210422516,-9.803865432739258
1749451232.825529,-3.011142061281331,24.48090577095184,-185.9466346153846,345.1318122734434,0.2682223916053772,0.22816835343837738,-9.805858612060547
1749451232.836562,-3.011142061281331,24.480905779561084,-187.50576130060048,345.0446580619969,0.2624434232711792,0.20744387805461884,-9.7899169921875
1749451232.8448672,-3.011142061281331,24.480905787351375,-188.28533653846154,344.9634525489196,0.24968990683555603,0.19867585599422455,-9.787924766540527
1749451232.8548808,-3.011142061281331,24.480905794400613,-188.28533653846154,344.88778970664595,0.24191823601722717,0.1843281388282776,-9.80107593536377
1749451232.8644674,-3.011142061281331,24.480905800779293,-189.06489591598512,344.82507928700005,0.2251792550086975,0.1624080389738083,-9.810441970825195
1749451232.8751476,-3.011142061281331,24.480905806551203,-189.06489591598512,344.77225850578003,0.21222645044326782,0.14367631077766418,-9.827579498291016
1749451232.8855252,-3.011142061281331,24.48090581177406,-189.06489591598512,344.7453553526261,0.19229909777641296,0.13152062892913818,-9.861655235290527
1749451232.8945138,-3.011142061281331,24.480905816500094,-187.5057692307692,344.7202884703837,0.19209982454776764,0.10800632834434509,-9.864645004272461
1749451232.9050133,-3.011142061281331,24.480905820776563,-187.5057692307692,344.6969325246415,0.17277027666568756,0.10262593626976013,-9.87839412689209
1749451232.914368,-3.011142061281331,24.480905824646236,-189.06489591598512,344.6780881602606,0.15662911534309387,0.10103175044059753,-9.91705322265625
1749451232.9266477,-3.011142061281331,24.480905828147804,-182.82836538461538,344.66053001530383,0.14686469733715057,0.08887605369091034,-9.93359375
1749451232.9354389,-3.011142061281331,24.480905831316285,-187.5057692307692,344.64242823646407,0.14606760442256927,0.10282521694898605,-9.926219940185547
1749451232.9477346,-3.011142061281331,24.480905834183364,-190.62403846153845,344.62556199197746,0.13610391318798065,0.12335040420293808,-9.939373016357422
1749451232.9548457,-3.011142061281331,24.480905836777715,-189.06489591598512,344.60984695062155,0.14766179025173187,0.12972715497016907,-9.946944236755371
1749451232.9642744,-3.011142061281331,24.480905839125278,-187.5057692307692,344.5757343467529,0.15563274919986725,0.14487195014953613,-9.928811073303223
1749451232.9764597,-3.011142061281331,24.480905841249527,-182.82836538461538,344.53435075625794,0.1634044051170349,0.1576254665851593,-9.914663314819336
1749451232.9843595,-3.011142061281331,24.48090584317171,-182.82836538461538,344.49579179687606,0.19608528912067413,0.18751654028892517,-9.89294147491455
1749451232.9947605,-3.011142061281331,24.480905844911042,-182.82836538461538,344.45986467381033,0.21103081107139587,0.1942918300628662,-9.872018814086914
1749451233.0047555,-3.011142061281331,24.480905846484923,-182.82836538461538,344.41812426099636,0.23195457458496094,0.21003445982933044,-9.843721389770508
1749451233.0153272,-3.011142061281331,24.48090584790909,-185.9466346153846,344.37923283415233,0.2574615776538849,0.2283676266670227,-9.792905807495117
1749451233.0241373,-3.011142061281331,24.48090584919778,-187.5057692307692,344.35820372200067,0.2785845994949341,0.2486935555934906,-9.764410018920898
1749451233.0341659,-3.011142061281331,24.480905850363882,-182.82836538461538,344.3386099489231,0.3013018071651459,0.250885546207428,-9.712000846862793
1749451233.044063,-3.011142061281331,24.480905851419063,-184.3875,344.3189090131734,0.3013018071651459,0.24909210205078125,-9.657001495361328
1749451233.054194,-3.011142061281331,24.48090585237387,-187.5057692307692,344.3005527620055,0.3162473142147064,0.23753422498703003,-9.652019500732422
1749451233.0640619,-3.011142061281331,24.48090585323785,-187.5057692307692,344.2834494141635,0.3150516748428345,0.2283676415681839,-9.597417831420898
1749451233.0741825,-3.011142061281331,24.480905854019642,-184.3875,344.2495717516888,0.3096712827682495,0.21900177001953125,-9.57928466796875
1749451233.0840688,-3.011142061281331,24.48090585472707,-181.26922283906202,344.20736934832956,0.3130589425563812,0.1966831088066101,-9.552183151245117
1749451233.0940852,-3.011142061281331,24.4809058553672,-182.82836538461538,344.1536095065615,0.3142545819282532,0.18911071121692657,-9.537836074829102
1749451233.104191,-3.011142061281331,24.48090585594644,-187.5057692307692,344.1035190351858,0.2993090748786926,0.1763572096824646,-9.549991607666016
1749451233.1140952,-3.011142061281331,24.480905856470578,-184.3875,344.0535191367742,0.29871124029159546,0.1462668776512146,-9.548596382141113
1749451233.1241755,-3.011142061281331,24.480905856944858,-185.9466346153846,344.00608365964547,0.2883490025997162,0.12653878331184387,-9.565933227539062
1749451233.1340816,-3.011142061281331,24.480905857374022,-189.06489591598512,343.95767920537156,0.29034173488616943,0.11039762198925018,-9.59024429321289
1749451233.14409,-3.011142061281331,24.480905857762362,-184.3875,343.9125785902744,0.26782381534576416,0.09286153316497803,-9.60339641571045
1749451233.1541958,-3.011142061281331,24.48090585811376,-184.3875,343.8705563112785,0.24889281392097473,0.07711891829967499,-9.652816772460938
1749451233.1646225,-3.011142061281331,24.480905858431733,-179.71009615384614,343.83140225698895,0.23374801874160767,0.05161187797784805,-9.676929473876953
1749451233.1844096,-3.011142061281331,24.48090585871946,-180.48966346153844,343.78641584701137,0.23354874551296234,0.050416238605976105,-9.715189933776855
1749451233.194113,-3.011142061281331,24.480905858979817,-182.04879807692305,343.7395616881256,0.217009037733078,0.07672036439180374,-9.71877670288086
1749451233.2041245,-3.011142061281331,24.480905859215408,-182.82836538461538,343.7008438431795,0.22717198729515076,0.08010801672935486,-9.725750923156738
1749451233.2140746,-3.011142061281331,24.48090585942859,-182.82836538461538,343.6669064135518,0.25387465953826904,0.10003538429737091,-9.720170974731445
1749451233.224069,-3.011142061281331,24.48090585962149,-182.04879807692305,343.62607263248657,0.2793816924095154,0.12414749711751938,-9.727943420410156
1749451233.2342203,-3.011142061281331,24.480905859796042,-182.82836538461538,343.5880259553696,0.30508798360824585,0.13909302651882172,-9.719573974609375
1749451233.244137,-3.011142061281331,24.48090585995399,-186.72620192307693,343.5525761488152,0.3260117173194885,0.16539715230464935,-9.67812442779541
1749451233.2548459,-3.011142061281331,24.48090586009691,-186.72620192307693,343.49503903410573,0.33358412981033325,0.1649985909461975,-9.66696548461914
1749451233.2648232,-3.011142061281331,24.480905860226237,-181.26922283906202,343.4414291070187,0.3112654685974121,0.2811751365661621,-9.859663009643555
1749451233.2748778,-3.011142061281331,24.48090586034326,-178.15096153846153,343.39147831791865,-0.02470993623137474,0.6683638691902161,-9.629899978637695
1749451233.2847934,-3.011142061281331,24.480905860449152,-181.26922283906202,343.34509705892924,-0.4657025635242462,0.2540739178657532,-9.088872909545898
1749451233.2948222,-3.011142061281331,24.480905860544972,-189.06489591598512,343.30188154620873,0.6255201101303101,-0.7448850274085999,-9.927216529846191
1749451233.3048537,-3.011142061281331,24.480905860631676,-187.5057692307692,343.2616157021936,0.8168228268623352,0.1665927916765213,-9.980623245239258
1749451233.314884,-3.011142061281331,24.480905860710134,-187.5057692307692,343.21501179510847,-0.22936399281024933,-0.2389291524887085,-9.469684600830078
1749451233.326922,-3.011142061281331,24.480905860781128,-181.26922283906202,343.1713785304859,0.3347797691822052,-0.11936492472887039,-9.416877746582031
1749451233.3353503,-3.011142061281331,24.48090586084537,-181.26922283906202,343.13072344816567,0.13849520683288574,0.012753508985042572,-9.779356002807617
1749451233.3449912,-3.011142061281331,24.480905860903498,-187.5057692307692,343.084051791226,0.16519787907600403,-0.5689263343811035,-9.612563133239746
1749451233.3553061,-3.011142061281331,24.480905860956096,-185.9466346153846,343.0316474573821,0.37005120515823364,0.1837303191423416,-9.907487869262695
1749451233.3652768,-3.011142061281331,24.48090586100369,-181.26922283906202,342.99173821817317,0.360087513923645,0.30927276611328125,-9.91446304321289
1749451233.3754933,-3.011142061281331,24.48090586104676,-182.82836538461538,342.9635547605696,0.13789737224578857,-0.11438310146331787,-9.485427856445312
1749451233.3853655,-3.011142061281331,24.480905861085734,-187.5057692307692,342.91937493450166,0.2365378588438034,0.09684699773788452,-9.896926879882812
1749451233.3964422,-3.011142061281331,24.480905861121,-182.82836538461538,342.88263326685353,0.09664773941040039,-0.03666635602712631,-9.757434844970703
1749451233.4060056,-3.011142061281331,24.48090586115291,-181.26922283906202,342.8571512309042,0.2429146021604538,0.3015010952949524,-10.020078659057617
1749451233.415272,-3.011142061281331,24.480905861181782,-184.3875,342.8246566333399,0.020923737436532974,0.04623149335384369,-10.07308578491211
1749451233.4253278,-3.011142061281331,24.48090586120791,-184.3875,342.794379949934,0.04802495986223221,0.32142841815948486,-9.870223999023438
1749451233.4355943,-3.011142061281331,24.48090586123155,-187.5057692307692,342.76622225909233,0.4087103307247162,0.22617563605308533,-9.979825019836426
1749451233.445521,-3.011142061281331,24.480905861252946,-185.9466346153846,342.73998646745446,0.18950927257537842,0.06456467509269714,-9.880786895751953
1749451233.4543855,-3.011142061281331,24.480905861272305,-181.26922283906202,342.7022304912238,0.13291554152965546,0.23135673999786377,-10.032034873962402
1749451233.4650915,-3.011142061281331,24.480905861289823,-176.59182692307692,342.6538219243649,0.2552695870399475,0.1552341878414154,-10.012506484985352
1749451233.4747174,-3.011142061281331,24.480905861305672,-179.71009615384614,342.6087174773866,0.13431043922901154,0.1787484884262085,-9.914064407348633
1749451233.4844995,-3.011142061281331,24.480905861320014,-184.3875,342.5666916280542,0.24311389029026031,0.30927276611328125,-9.873811721801758
1749451233.4946887,-3.011142061281331,24.480905861332992,-187.5057692307692,342.52753424712085,0.311066210269928,0.2405233383178711,-9.864246368408203
1749451233.5048032,-3.011142061281331,24.480905861344738,-184.3875,342.4999686744947,0.2967185080051422,0.2574615776538849,-9.843521118164062
1749451233.515991,-3.011142061281331,24.480905861355364,-179.71009615384614,342.4830286027023,0.2235850691795349,0.18970853090286255,-9.791511535644531
1749451233.5245254,-3.011142061281331,24.48090586136498,-178.15096153846153,342.45850075653794,0.2516826391220093,0.29612070322036743,-9.820804595947266
1749451233.5344007,-3.011142061281331,24.48090586137368,-182.82836538461538,342.4264667651634,0.23374803364276886,0.3118633031845093,-9.767398834228516
1749451233.544256,-3.011142061281331,24.480905861381554,-189.06489591598512,342.4057995392163,0.2957221269607544,0.1349082738161087,-9.68250846862793
1749451233.5547442,-3.011142061281331,24.480905861388678,-184.3875,342.39528696842643,0.32362043857574463,0.2941279411315918,-9.768196105957031
1749451233.5670729,-3.011142061281331,24.480905861395126,-179.71009615384614,342.4076039058502,0.1924983710050583,0.2716100215911865,-9.723957061767578
1749451233.575076,-3.011142061281331,24.48090586140096,-180.48966346153844,342.41908015245303,0.18751652538776398,0.17655646800994873,-9.728342056274414
1749451233.5846183,-3.011142061281331,24.48090586140624,-183.60792476213896,342.429773089468,0.24171897768974304,0.2502877116203308,-9.794300079345703
1749451233.5943866,-3.011142061281331,24.480905861411014,-183.60792476213896,342.43535612226043,0.22398361563682556,0.18711796402931213,-9.76401138305664
1749451233.6047838,-3.011142061281331,24.480905861415337,-182.04879807692305,342.4272284195051,0.2389291226863861,0.13789737224578857,-9.78553295135498
1749451233.6158834,-3.011142061281331,24.48090586141925,-186.72620192307693,342.4196554719513,0.20584970712661743,0.17974485456943512,-9.842326164245605
1749451233.6245213,-3.011142061281331,24.480905861422787,-189.06490384615384,342.41259941486106,0.15005308389663696,0.16121241450309753,-9.80286979675293
1749451233.6343646,-3.011142061281331,24.48090586142599,-183.60792476213896,342.4038277443512,0.21920102834701538,0.14925597608089447,-9.825387954711914
1749451233.6446989,-3.011142061281331,24.480905861428887,-182.04879807692305,342.39565478297067,0.21162864565849304,0.23912841081619263,-9.83714485168457
1749451233.655054,-3.011142061281331,24.48090586143151,-184.3875,342.39463378781056,0.1924983710050583,0.21740758419036865,-9.811837196350098
1749451233.6689603,-3.011142061281331,24.480905861433882,-183.60792476213896,342.39368248053063,0.22557780146598816,0.2558673918247223,-9.80027961730957
1749451233.674588,-3.011142061281331,24.480905861436028,-182.82836538461538,342.3927961045944,0.22338581085205078,0.23872986435890198,-9.860260009765625
1749451233.6842823,-3.011142061281331,24.48090586143797,-185.9466346153846,342.3919702281223,0.19488964974880219,0.149455264210701,-9.775569915771484
1749451233.6943831,-3.011142061281331,24.48090586143973,-181.26922283906202,342.39551616055155,0.2983126938343048,0.3007039725780487,-9.754646301269531
1749451233.7056165,-3.011142061281331,24.48090586144132,-184.3875,342.39882006586464,0.2803780734539032,0.13849520683288574,-9.723160743713379
1749451233.715691,-3.011142061281331,24.48090586144276,-187.5057692307692,342.3887838780408,0.3851960003376007,0.28814974427223206,-9.72913932800293
1749451233.7242858,-3.011142061281331,24.480905861444064,-184.3875,342.3751014564927,0.2787838578224182,0.31824004650115967,-9.652617454528809
1749451233.7343607,-3.011142061281331,24.480905861445244,-184.3875,342.35794016242016,0.36706212162971497,0.26264268159866333,-9.608777046203613
1749451233.7448394,-3.011142061281331,24.48090586144631,-182.82836538461538,342.3419502100461,0.3178415298461914,0.27997949719429016,-9.584863662719727
1749451233.7554493,-3.011142061281331,24.480905861447273,-185.9466346153846,342.32705164960856,0.3714461326599121,0.2104329913854599,-9.532256126403809
1749451233.7646244,-3.011142061281331,24.480905861448147,-187.5057692307692,342.3131699883054,0.3752323389053345,0.17615792155265808,-9.521495819091797
1749451233.7750475,-3.011142061281331,24.480905861448935,-185.9466346153846,342.30008132478434,0.3580947816371918,0.208041712641716,-9.509737968444824
1749451233.7842946,-3.011142061281331,24.48090586144965,-187.5057692307692,342.31000089447497,0.3064829111099243,0.2014656811952591,-9.503361701965332
1749451233.7947805,-3.011142061281331,24.480905861450296,-189.06489591598512,342.30597502502053,0.3772250711917877,0.17376664280891418,-9.494593620300293
1749451233.8077,-3.011142061281331,24.480905861450882,-179.71009615384614,342.2933774527003,0.34255144000053406,0.174763023853302,-9.510136604309082
1749451233.8144214,-3.011142061281331,24.48090586145141,-179.71009615384614,342.26382902529724,0.33517831563949585,0.10541576892137527,-9.549394607543945
1749451233.8282416,-3.011142061281331,24.48090586145189,-185.9466346153846,342.22759417874585,0.3032945394515991,0.09385789930820465,-9.583868026733398
1749451233.834413,-3.011142061281331,24.480905861452325,-185.9466346153846,342.19383253651824,0.2590557634830475,0.05061551555991173,-9.619538307189941
1749451233.8452368,-3.011142061281331,24.480905861452715,-182.82836538461538,342.1623752904033,0.2560666799545288,0.058785732835531235,-9.677127838134766
1749451233.8566158,-3.011142061281331,24.48090586145307,-185.9466346153846,342.1330651541704,0.2413204312324524,0.06316975504159927,-9.720370292663574
1749451233.8653774,-3.011142061281331,24.48090586145339,-189.06489591598512,342.1057555771385,0.22318652272224426,0.024510659277439117,-9.722562789916992
1749451233.8745644,-3.011142061281331,24.48090586145368,-187.5057692307692,342.0848587331832,0.20027005672454834,0.06157556548714638,-9.7771635055542
1749451233.8846738,-3.011142061281331,24.480905861453945,-181.26922283906202,342.0653882003549,0.18014341592788696,0.039057642221450806,-9.783340454101562
1749451233.896671,-3.011142061281331,24.480905861454183,-175.0326923076923,342.0601860508734,0.19130273163318634,0.033278703689575195,-9.797887802124023
1749451233.9078324,-3.011142061281331,24.4809058614544,-184.3875,342.06882975587826,0.21581338346004486,0.060579195618629456,-9.805261611938477
1749451233.9148047,-3.011142061281331,24.480905861454595,-189.06489591598512,342.0857192583934,0.2365378439426422,0.05719154328107834,-9.810441970825195
1749451233.9243252,-3.011142061281331,24.480905861454772,-187.5057692307692,342.10145597030436,0.2642368972301483,0.07911165058612823,-9.805459976196289
1749451233.9342637,-3.011142061281331,24.480905861454932,-187.5057692307692,342.11611857517073,0.26941800117492676,0.1309228092432022,-9.77895736694336
1749451233.9456904,-3.011142061281331,24.480905861455078,-182.82836538461538,342.10771499420156,0.2895446717739105,0.12992644309997559,-9.763812065124512
1749451233.9550683,-3.011142061281331,24.48090586145521,-182.82836538461538,342.09988499846224,0.3200335204601288,0.15563274919986725,-9.716185569763184
1749451233.9642673,-3.011142061281331,24.480905861455327,-185.9466346153846,342.083905660247,0.3290008306503296,0.140487939119339,-9.685895919799805
1749451233.9751978,-3.011142061281331,24.480905861455433,-184.3875,342.0690169895004,0.32860225439071655,0.13231772184371948,-9.685098648071289
1749451233.9842517,-3.011142061281331,24.48090586145553,-181.26922283906202,342.0551445428688,0.29133808612823486,0.11637581884860992,-9.688287734985352
1749451233.9968174,-3.011142061281331,24.480905861455618,-179.71009615384614,342.0379070283834,0.2821715176105499,0.11258961260318756,-9.69705581665039
1749451234.0043318,-3.011142061281331,24.480905861455696,-181.26922283906202,342.02184605801,0.2989104986190796,0.09066952019929886,-9.695661544799805
1749451234.0144267,-3.011142061281331,24.480905861455767,-184.3875,342.00688132689663,0.2787838578224182,0.08309711515903473,-9.69526195526123
1749451234.0243194,-3.011142061281331,24.48090586145583,-185.9466346153846,342.02799911066563,0.25626593828201294,0.047825686633586884,-9.709609985351562
1749451234.0348358,-3.011142061281331,24.48090586145589,-185.9466346153846,342.0476755030918,0.23275163769721985,0.039854735136032104,-9.741891860961914
1749451234.0447223,-3.011142061281331,24.480905861455945,-185.1670673076923,342.06600888613735,0.20764318108558655,0.016938263550400734,-9.785931587219238
1749451234.055584,-3.011142061281331,24.480905861455994,-182.82836538461538,342.0830909267175,0.19568674266338348,0.001195642165839672,-9.79589557647705
1749451234.064522,-3.011142061281331,24.480905861456037,-182.82836538461538,342.09022274114096,0.1853245198726654,-0.002192010637372732,-9.831565856933594
1749451234.074287,-3.011142061281331,24.480905861456076,-184.3875,342.09686777458023,0.16460004448890686,-0.009365863166749477,-9.879191398620605
1749451234.0843415,-3.011142061281331,24.48090586145611,-185.9466346153846,342.1030592522024,0.1470639705657959,-0.015941893681883812,-9.910079956054688
1749451234.0941412,-3.011142061281331,24.480905861456144,-182.82836538461538,342.102158227171,0.14028866589069366,-0.003387654200196266,-9.950332641601562
1749451234.1041794,-3.011142061281331,24.480905861456172,-179.71009615384614,342.1013187014756,0.12893006205558777,0.005181116983294487,-9.973846435546875
1749451234.1145136,-3.011142061281331,24.480905861456197,-182.82836538461538,342.0635770929602,0.13550609350204468,0.017137538641691208,-9.994970321655273
1749451234.124103,-3.011142061281331,24.480905861456222,-181.26922283906202,342.01995548588343,0.12414750456809998,0.03387652337551117,-10.001745223999023
1749451234.1342328,-3.011142061281331,24.480905861456243,-185.9466346153846,341.9793112654248,0.14447341859340668,0.06037992611527443,-10.00672721862793
1749451234.1440544,-3.011142061281331,24.480905861456264,-187.5057692307692,341.9414412104821,0.1618102341890335,0.08628549426794052,-10.010313987731934
1749451234.1540782,-3.011142061281331,24.480905861456282,-182.82836538461538,341.90615597078045,0.1689840853214264,0.11557872593402863,-10.003538131713867
1749451234.1640694,-3.011142061281331,24.480905861456296,-182.82836538461538,341.88627022152326,0.19369402527809143,0.15304218232631683,-9.976835250854492
1749451234.1741073,-3.011142061281331,24.48090586145631,-185.9466346153846,341.8848711296795,0.21840395033359528,0.1715746372938156,-9.936981201171875
1749451234.1844552,-3.011142061281331,24.480905861456325,-187.5057692307692,341.9011704371913,0.23713566362857819,0.19608530402183533,-9.912271499633789
1749451234.1941073,-3.011142061281331,24.480905861456336,-187.5057692307692,341.9208699332485,0.24909208714962006,0.20166495442390442,-9.876401901245117
1749451234.204074,-3.011142061281331,24.480905861456346,-184.3875,341.94345616409186,0.2779867649078369,0.2323530912399292,-9.847906112670898
1749451234.214092,-3.011142061281331,24.480905861456357,-182.82836538461538,341.97322437588343,0.28954464197158813,0.2365378439426422,-9.775370597839355
1749451234.2240498,-3.011142061281331,24.480905861456364,-181.26922283906202,342.0010108346651,0.29851198196411133,0.25786012411117554,-9.762417793273926
1749451234.2340884,-3.011142061281331,24.48090586145637,-178.15096153846153,342.0269007326347,0.3009032607078552,0.2463022619485855,-9.748069763183594
1749451234.2440643,-3.011142061281331,24.480905861456378,-184.3875,342.05102351928207,0.29213520884513855,0.22776980698108673,-9.716585159301758
1749451234.254154,-3.011142061281331,24.480905861456385,-182.82836538461538,342.077840721076,0.2803780436515808,0.23295092582702637,-9.703432083129883
1749451234.264066,-3.011142061281331,24.480905861456392,-185.9466346153846,342.10282751855635,0.27918243408203125,0.22697271406650543,-9.692670822143555
1749451234.2740846,-3.011142061281331,24.4809058614564,-187.5057692307692,342.12176793317497,0.26025140285491943,0.21720829606056213,-9.697653770446777
1749451234.2840476,-3.011142061281331,24.480905861456403,-182.82836538461538,342.13504414788997,0.27180927991867065,0.20764316618442535,-9.715787887573242
1749451234.2940838,-3.011142061281331,24.480905861456407,-182.82836538461538,342.1430627251305,0.25726231932640076,0.19369402527809143,-9.737109184265137
1749451234.3040738,-3.011142061281331,24.48090586145641,-181.26922283906202,342.1505339955162,0.2463022768497467,0.18891143798828125,-9.751457214355469
1749451234.3141024,-3.011142061281331,24.480905861456414,-181.26922283906202,342.1444593814775,0.22936399281024933,0.17336809635162354,-9.758033752441406
1749451234.3240676,-3.011142061281331,24.480905861456417,-181.26922283906202,342.1387993893604,0.21880248188972473,0.16220876574516296,-9.777162551879883
1749451234.3341076,-3.011142061281331,24.48090586145642,-181.26922283906202,342.1335257192043,0.2096359133720398,0.17755284905433655,-9.79609489440918
1749451234.344126,-3.011142061281331,24.480905861456424,-185.9466346153846,342.1286120026584,0.212824285030365,0.18014340102672577,-9.798685073852539
1749451234.3542414,-3.011142061281331,24.480905861456428,-189.06489591598512,342.12403367114,0.2365378439426422,0.2014656960964203,-9.797091484069824
1749451234.3640816,-3.011142061281331,24.48090586145643,-187.5057692307692,342.1158379196003,0.24590370059013367,0.22976255416870117,-9.789718627929688
1749451234.3741906,-3.011142061281331,24.48090586145643,-185.1670673076923,342.0994694277722,0.2648347318172455,0.2658310830593109,-9.772979736328125
1749451234.3840709,-3.011142061281331,24.48090586145643,-182.82836538461538,342.0818313866107,0.2883490324020386,0.2795809805393219,-9.72714614868164
1749451234.3959959,-3.011142061281331,24.48090586145643,-183.60792476213896,342.0653972274527,0.319435715675354,0.2915373742580414,-9.714591979980469
1749451234.4061217,-3.011142061281331,24.48090586145643,-185.9466346153846,342.0431677601043,0.335776150226593,0.3040916323661804,-9.670751571655273
1749451234.4150825,-3.011142061281331,24.48090586145643,-189.84447115384614,342.02937258130225,0.3614824414253235,0.333185613155365,-9.64883041381836
1749451234.4246738,-3.011142061281331,24.48090586145643,-189.06490384615384,342.01838398908035,0.3728410601615906,0.3152509331703186,-9.601005554199219
1749451234.434851,-3.011142061281331,24.48090586145643,-185.1670673076923,342.0081454216656,0.38140982389450073,0.3250153660774231,-9.55537223815918
1749451234.4458785,-3.011142061281331,24.48090586145643,-183.60792476213896,341.9898236682195,0.37981563806533813,0.31664586067199707,-9.551385879516602
1749451234.4554188,-3.011142061281331,24.48090586145643,-182.82836538461538,341.9451370246981,0.38479745388031006,0.28635627031326294,-9.524484634399414
1749451234.4642916,-3.011142061281331,24.48090586145643,-179.71009615384614,341.90311481813603,0.3802141845226288,0.27519693970680237,-9.479846954345703
1749451234.474572,-3.011142061281331,24.48090586145643,-176.59182692307692,341.8593656107222,0.3648701012134552,0.25865721702575684,-9.498579025268555
1749451234.4848163,-3.011142061281331,24.48090586145643,-176.59182692307692,341.7967930758047,0.3519172966480255,0.2241828739643097,-9.498977661132812
1749451234.4950342,-3.011142061281331,24.48090586145643,-182.82836538461538,341.72788782733943,0.34175431728363037,0.20365770161151886,-9.513126373291016
1749451234.5045226,-3.011142061281331,24.48090586145643,-185.9466346153846,341.6636856968574,0.33258774876594543,0.18811434507369995,-9.533651351928711
1749451234.5149555,-3.011142061281331,24.48090586145643,-179.71009615384614,341.60386567370614,0.3120625615119934,0.16858552396297455,-9.539628982543945
1749451234.5243366,-3.011142061281331,24.48090586145643,-176.59182692307692,341.5631335351476,0.28237080574035645,0.13849520683288574,-9.595426559448242
1749451234.5352519,-3.011142061281331,24.48090586145643,-182.82836538461538,341.5378636208135,0.27180930972099304,0.1169736385345459,-9.62910270690918
1749451234.545502,-3.011142061281331,24.48090586145643,-182.82836538461538,341.5143185009063,0.23753422498703003,0.09864047169685364,-9.660589218139648
1749451234.5554812,-3.011142061281331,24.48090586145643,-184.3875,341.5088799120574,0.21840396523475647,0.08787968754768372,-9.709012031555176
1749451234.5646718,-3.011142061281331,24.48090586145643,-181.26922283906202,341.4873130710899,0.2096358984708786,0.0739305317401886,-9.751855850219727
1749451234.5743227,-3.011142061281331,24.48090586145643,-178.15096153846153,341.4654469929676,0.19289690256118774,0.07771673053503036,-9.769590377807617
1749451234.584532,-3.011142061281331,24.48090586145643,-182.82836538461538,341.44507338091324,0.1771543025970459,0.0641661286354065,-9.819210052490234
1749451234.5953264,-3.011142061281331,24.48090586145643,-187.5057692307692,341.4307054968408,0.18412888050079346,0.05938355252146721,-9.846908569335938
1749451234.6042812,-3.011142061281331,24.48090586145643,-192.18317307692308,341.41731829066254,0.18472668528556824,0.08050656318664551,-9.83714485168457
1749451234.6143773,-3.011142061281331,24.48090586145643,-190.62403846153845,341.4185004374374,0.20405623316764832,0.08847751468420029,-9.854880332946777
1749451234.6251884,-3.011142061281331,24.48090586145643,-185.9466346153846,341.4453174024376,0.2243821620941162,0.08947388082742691,-9.849102020263672
1749451234.6343877,-3.011142061281331,24.48090586145643,-185.9466346153846,341.47030397928654,0.10441940277814865,-0.03646708279848099,-9.784137725830078
1749451234.6446505,-3.011142061281331,24.48090586145643,-190.62403846153845,341.49358510086853,0.2608492374420166,0.10700996220111847,-10.017088890075684
1749451234.6554024,-3.011142061281331,24.48090586145643,-195.3014423076923,341.4759060562154,0.17615792155265808,0.06675668060779572,-9.960893630981445
1749451234.6644187,-3.011142061281331,24.48090586145643,-187.5057692307692,341.45943369225336,0.19488966464996338,0.13231772184371948,-9.816022872924805
1749451234.6743102,-3.011142061281331,24.48090586145643,-182.82836538461538,341.43947051718834,0.2544724941253662,0.12633951008319855,-9.816420555114746
1749451234.6842453,-3.011142061281331,24.48090586145643,-185.9466346153846,341.42548505578657,0.17037898302078247,-0.10760778933763504,-9.67573356628418
1749451234.6958473,-3.011142061281331,24.48090586145643,-184.3875,341.4124541700737,0.20664680004119873,0.017934631556272507,-9.745677947998047
